word,is_sequential,present_trial,recog_rating,recog_RT,target_angle,response_angle,response_error,source_RT,valid_RT,block,session,recog_band,intrusion_1,intrusion_2,intrusion_3,intrusion_4,intrusion_5,intrusion_6,intrusion_7,intrusion_8,intrusion_9,intrusion_offset1,intrusion_offset2,intrusion_offset3,intrusion_offset4,intrusion_offset5,intrusion_offset6,intrusion_offset7,intrusion_offset8,intrusion_offset9,intrusion_lag_1,intrusion_lag_2,intrusion_lag_3,intrusion_lag_4,intrusion_lag_5,intrusion_lag_6,intrusion_lag_7,intrusion_lag_8,intrusion_lag_9,participant,distance_1,distance_2,distance_3,distance_4,distance_5,distance_6,distance_7,distance_8,distance_9,orthographic_1,orthographic_2,orthographic_3,orthographic_4,orthographic_5,orthographic_6,orthographic_7,orthographic_8,orthographic_9,semantic_1,semantic_2,semantic_3,semantic_4,semantic_5,semantic_6,semantic_7,semantic_8,semantic_9
RUST,FALSE,1,4,1709,1.469548924,1.075457913,0.394091012,2076,TRUE,1,1,Low,2.920535522,3.112868706,5.98306787,2.398321779,1.517304382,4.380512771,6.104762052,1.119634287,3.131428487,-1.450986598,-1.643319782,1.769666362,-0.928772855,-0.047755458,-2.910963847,1.64797218,0.349914637,-1.661879563,1,2,3,4,5,6,7,8,9,1,0.880476698,1.072459897,1.197561763,0.401182764,0.001140075,1.973522849,1.077099264,0.06059802,1.090957348,1,0.75,0.5,1,1,1,1,1,1,0.339121875,0.405036746,0.210188536,0.267001404,0.253944782,0.192897802,0.257132376,0.352921048,0.20241486
BEAN,FALSE,2,6,1285,2.920535522,1.123501492,1.79703403,2066,TRUE,1,1,High,1.469548924,3.112868706,5.98306787,2.398321779,1.517304382,4.380512771,6.104762052,1.119634287,3.131428487,1.450986598,-0.192333184,-3.062532348,0.522213743,1.403231139,-1.459977249,3.098958778,1.800901235,-0.210892965,-1,1,2,3,4,5,6,7,8,1,0.880476698,0.01843908,1.996876362,0.133282911,0.833217864,0.889407609,1.999091314,1.228079668,0.022155623,1,0.75,1,1,1,1,0.75,1,0.75,0.339121875,0.314740045,0.358126524,0.366289201,0.342978879,0.261115445,0.350642084,0.302677677,0.228931916
DENT,FALSE,3,3,877,3.112868706,0.083647211,3.029221495,2251,TRUE,1,1,Unrecognized,1.469548924,2.920535522,5.98306787,2.398321779,1.517304382,4.380512771,6.104762052,1.119634287,3.131428487,1.643319782,0.192333184,-2.870199163,0.714546927,1.595564324,-1.267644065,-2.991893345,1.993234419,-0.018559781,-2,-1,1,2,3,4,5,6,7,1,1.072459897,0.01843908,1.963398273,0.244609794,1.024765465,0.701469796,1.988815968,1.409985434,0.000172228,0.75,0.75,0.75,1,1,0.75,1,1,0.75,0.405036746,0.314740045,0.161035562,0.244485841,0.269354278,0.290346921,0.308017923,0.269578548,0.156035932
MUTT,FALSE,4,2,1238,5.98306787,4.198842254,1.784225616,731,TRUE,1,1,Unrecognized,1.469548924,2.920535522,3.112868706,2.398321779,1.517304382,4.380512771,6.104762052,1.119634287,3.131428487,-1.769666362,3.062532348,2.870199163,-2.698439217,-1.81742182,1.602555098,-0.121694182,-1.419751725,2.851639383,-3,-2,-1,1,2,3,4,5,6,1,1.197561763,1.996876362,1.963398273,1.903403994,1.244132955,1.031753433,0.007395603,0.849529077,1.958257237,0.5,1,0.75,1,1,1,1,1,1,0.210188536,0.358126524,0.161035562,0.444415366,0.266055374,0.182871404,0.234688828,0.144933489,0.173250635
GIMP,FALSE,5,3,1276,2.398321779,2.62111523,-0.222793451,930,TRUE,1,1,Unrecognized,1.469548924,2.920535522,3.112868706,5.98306787,1.517304382,4.380512771,6.104762052,1.119634287,3.131428487,0.928772855,-0.522213743,-0.714546927,2.698439217,0.881017397,-1.982190992,2.576745035,1.278687492,-0.733106708,-4,-3,-2,-1,1,2,3,4,5,1,0.401182764,0.133282911,0.244609794,1.903403994,0.363633333,1.399888017,1.844670178,0.712027634,0.256900959,1,1,1,1,0.75,1,1,1,1,0.267001404,0.366289201,0.244485841,0.444415366,0.304047975,0.264452272,0.1991556,0.233242876,0.183951826
PIER,FALSE,6,4,1824,1.517304382,4.226460911,-2.709156529,714,TRUE,1,1,Low,1.469548924,2.920535522,3.112868706,5.98306787,2.398321779,4.380512771,6.104762052,1.119634287,3.131428487,0.047755458,-1.403231139,-1.595564324,1.81742182,-0.881017397,-2.863208389,1.695727638,0.397670095,-1.614124105,-5,-4,-3,-2,-1,1,2,3,4,1,0.001140075,0.833217864,1.024765465,1.244132955,0.363633333,1.961500701,1.12460658,0.078034199,1.043314223,1,1,1,1,0.75,1,1,1,1,0.253944782,0.342978879,0.269354278,0.266055374,0.304047975,0.20529818,0.344318502,0.249864811,0.250341576
SYNC,FALSE,7,4,2712,4.380512771,4.568525836,-0.188013064,289,TRUE,1,1,Low,1.469548924,2.920535522,3.112868706,5.98306787,2.398321779,1.517304382,6.104762052,1.119634287,3.131428487,2.910963847,1.459977249,1.267644065,-1.602555098,1.982190992,2.863208389,-1.72424928,-3.022306823,1.249084284,-6,-5,-4,-3,-2,-1,1,2,3,1,1.973522849,0.889407609,0.701469796,1.031753433,1.399888017,1.961500701,1.152851415,1.992893877,0.68380877,1,1,0.75,1,1,1,1,1,1,0.192897802,0.261115445,0.290346921,0.182871404,0.264452272,0.20529818,0.224229304,0.310358982,0.109161384
OVAL,FALSE,8,2,1225,6.104762052,6.067335225,0.037426826,658,TRUE,1,1,Unrecognized,1.469548924,2.920535522,3.112868706,5.98306787,2.398321779,1.517304382,4.380512771,1.119634287,3.131428487,-1.64797218,-3.098958778,2.991893345,0.121694182,-2.576745035,-1.695727638,1.72424928,-1.298057543,2.973333565,-7,-6,-5,-4,-3,-2,-1,1,2,1,1.077099264,1.999091314,1.988815968,0.007395603,1.844670178,1.12460658,1.152851415,0.730630007,1.985877805,1,0.75,1,1,1,1,1,1,1,0.257132376,0.350642084,0.308017923,0.234688828,0.1991556,0.344318502,0.224229304,0.245556807,0.213058807
HAZE,FALSE,9,1,2372,1.119634287,1.08963461,0.029999677,1358,TRUE,1,1,Unrecognized,1.469548924,2.920535522,3.112868706,5.98306787,2.398321779,1.517304382,4.380512771,6.104762052,3.131428487,-0.349914637,-1.800901235,-1.993234419,1.419751725,-1.278687492,-0.397670095,3.022306823,1.298057543,-2.0117942,-8,-7,-6,-5,-4,-3,-2,-1,1,1,0.06059802,1.228079668,1.409985434,0.849529077,0.712027634,0.078034199,1.992893877,0.730630007,1.42684208,1,1,1,1,1,1,1,1,1,0.352921048,0.302677677,0.269578548,0.144933489,0.233242876,0.249864811,0.310358982,0.245556807,0.210583021
KEGS,FALSE,10,6,884,3.131428487,2.957283015,0.174145472,2139,TRUE,1,1,High,1.469548924,2.920535522,3.112868706,5.98306787,2.398321779,1.517304382,4.380512771,6.104762052,1.119634287,1.661879563,0.210892965,0.018559781,-2.851639383,0.733106708,1.614124105,-1.249084284,-2.973333565,2.0117942,-9,-8,-7,-6,-5,-4,-3,-2,-1,1,1.090957348,0.022155623,0.000172228,1.958257237,0.256900959,1.043314223,0.68380877,1.985877805,1.42684208,1,0.75,0.75,1,1,1,1,1,1,0.20241486,0.228931916,0.156035932,0.173250635,0.183951826,0.250341576,0.109161384,0.213058807,0.210583021
CARP,FALSE,1,6,957,3.394037981,0.079655714,-2.96880304,590,TRUE,2,1,High,6.169297297,3.671074803,1.022779271,0.530113345,0.775724952,2.197510367,5.135410297,0.77084294,1.256853558,-2.775259316,-0.277036822,2.37125871,2.863924635,2.618313028,1.196527613,-1.741372316,2.62319504,2.137184423,1,2,3,4,5,6,7,8,9,1,1.933646997,0.038129891,1.717678159,1.961697281,1.866184935,0.634408036,1.169750007,1.868614259,1.53658767,0.75,1,1,1,1,1,1,0.75,0.75,0.249015719,0.458190201,0.349869088,0.283198336,0.193343801,0.374247973,0.379489166,0.339775502,0.290172917
CITE,FALSE,2,5,1608,6.169297297,1.221189222,-1.335077232,414,TRUE,2,1,Low,3.394037981,3.671074803,1.022779271,0.530113345,0.775724952,2.197510367,5.135410297,0.77084294,1.256853558,2.775259316,2.498222494,-1.136667281,-0.644001356,-0.889612963,-2.311398378,1.033887,-0.88473095,-1.370741568,-1,1,2,3,4,5,6,7,8,1,1.933646997,1.800078563,0.579379601,0.200300248,0.370287265,1.674732385,0.488517357,0.3665023,0.801277002,0.75,1,0.75,1,1,1,0.5,1,1,0.249015719,0.248417761,0.280519791,0.233986591,0.233723995,0.233109096,0.116190551,0.18427474,0.169456268
SWAN,FALSE,3,2,728,3.671074803,3.738482801,-0.067407998,951,TRUE,2,1,Unrecognized,3.394037981,6.169297297,1.022779271,0.530113345,0.775724952,2.197510367,5.135410297,0.77084294,1.256853558,0.277036822,-2.498222494,2.648295532,3.140961458,2.89534985,1.473564436,-1.464335494,2.900231863,2.414221245,-2,-1,1,2,3,4,5,6,7,1,0.038129891,1.800078563,1.880776355,1.999999801,1.969835126,0.902921242,0.893740156,1.971013612,1.746924754,1,1,1,1,1,0.75,1,1,1,0.458190201,0.248417761,0.387731768,0.337362308,0.19262399,0.384433134,0.261798209,0.402531222,0.347341988
HISS,FALSE,4,2,2375,1.022779271,2.138418924,-1.115639653,588,TRUE,2,1,Unrecognized,3.394037981,6.169297297,3.671074803,0.530113345,0.775724952,2.197510367,5.135410297,0.77084294,1.256853558,-2.37125871,1.136667281,-2.648295532,0.492665926,0.247054319,-1.174731096,2.170554282,0.251936331,-0.234074287,-3,-2,-1,1,2,3,4,5,6,1,1.717678159,0.579379601,1.880776355,0.118924929,0.03036301,0.614208826,1.564442688,0.03156845,0.02727053,1,0.75,1,0.75,0.75,1,0.75,1,0.5,0.349869088,0.280519791,0.387731768,0.253275658,0.226074136,0.273525424,0.318747937,0.173505262,0.292492134
ROBS,FALSE,5,1,2538,0.530113345,5.612639601,1.200659052,402,TRUE,2,1,Unrecognized,3.394037981,6.169297297,3.671074803,1.022779271,0.775724952,2.197510367,5.135410297,0.77084294,1.256853558,-2.863924635,0.644001356,-3.140961458,-0.492665926,-0.245611607,-1.667397022,1.677888356,-0.240729595,-0.726740212,-4,-3,-2,-1,1,2,3,4,5,1,1.961697281,0.200300248,1.999999801,0.118924929,0.030011206,1.096450524,1.106887445,0.02883571,0.252655707,1,1,1,0.75,0.75,1,1,0.75,0.75,0.283198336,0.233986591,0.337362308,0.253275658,0.284521318,0.271806649,0.244235054,0.1737429,0.282356507
FEES,FALSE,6,5,1253,0.775724952,1.205545834,-0.429820881,604,TRUE,2,1,Low,3.394037981,6.169297297,3.671074803,1.022779271,0.530113345,2.197510367,5.135410297,0.77084294,1.256853558,-2.618313028,0.889612963,-2.89534985,-0.247054319,0.245611607,-1.421785415,1.923499963,0.004882012,-0.481128605,-5,-4,-3,-2,-1,1,2,3,4,1,1.866184935,0.370287265,1.969835126,0.03036301,0.030011206,0.851539922,1.345436273,1.19E-05,0.113526808,1,1,1,0.75,0.75,0.75,1,1,0.75,0.193343801,0.233723995,0.19262399,0.226074136,0.284521318,0.207571246,0.256330468,0.240422746,0.128360683
MEAD,FALSE,7,3,1209,2.197510367,1.151572837,1.04593753,1304,TRUE,2,1,Unrecognized,3.394037981,6.169297297,3.671074803,1.022779271,0.530113345,0.775724952,5.135410297,0.77084294,1.256853558,-1.196527613,2.311398378,-1.473564436,1.174731096,1.667397022,1.421785415,-2.937899929,1.426667427,0.94065681,-6,-5,-4,-3,-2,-1,1,2,3,1,0.634408036,1.674732385,0.902921242,0.614208826,1.096450524,0.851539922,1.979326266,0.856369584,0.410742514,1,1,0.75,1,1,0.75,1,1,1,0.374247973,0.233109096,0.384433134,0.273525424,0.271806649,0.207571246,0.349220677,0.252077589,0.342624347
BILE,FALSE,8,5,1039,5.135410297,5.454116421,-0.318706124,622,TRUE,2,1,Low,3.394037981,6.169297297,3.671074803,1.022779271,0.530113345,0.775724952,2.197510367,0.77084294,1.256853558,1.741372316,-1.033887,1.464335494,-2.170554282,-1.677888356,-1.923499963,2.937899929,-1.918617951,-2.404628568,-7,-6,-5,-4,-3,-2,-1,1,2,1,1.169750007,0.488517357,0.893740156,1.564442688,1.106887445,1.345436273,1.979326266,1.340850688,1.740512233,1,0.5,1,0.75,1,1,1,1,1,0.379489166,0.116190551,0.261798209,0.318747937,0.244235054,0.256330468,0.349220677,0.225584671,0.22833195
RAFT,FALSE,9,2,2151,0.77084294,2.520615851,-1.749772911,481,TRUE,2,1,Unrecognized,3.394037981,6.169297297,3.671074803,1.022779271,0.530113345,0.775724952,2.197510367,5.135410297,1.256853558,-2.62319504,0.88473095,-2.900231863,-0.251936331,0.240729595,-0.004882012,-1.426667427,1.918617951,-0.486010618,-8,-7,-6,-5,-4,-3,-2,-1,1,1,1.868614259,0.3665023,1.971013612,0.03156845,0.02883571,1.19E-05,0.856369584,1.340850688,0.115796661,0.75,1,1,1,0.75,1,1,1,0.75,0.339775502,0.18427474,0.402531222,0.173505262,0.1737429,0.240422746,0.252077589,0.225584671,0.233003812
LASS,FALSE,10,6,605,1.256853558,0.075959817,1.18089374,1197,TRUE,2,1,High,3.394037981,6.169297297,3.671074803,1.022779271,0.530113345,0.775724952,2.197510367,5.135410297,0.77084294,-2.137184423,1.370741568,-2.414221245,0.234074287,0.726740212,0.481128605,-0.94065681,2.404628568,0.486010618,-9,-8,-7,-6,-5,-4,-3,-2,-1,1,1.53658767,0.801277002,1.746924754,0.02727053,0.252655707,0.113526808,0.410742514,1.740512233,0.115796661,0.75,1,1,0.5,0.75,0.75,1,1,0.75,0.290172917,0.169456268,0.347341988,0.292492134,0.282356507,0.128360683,0.342624347,0.22833195,0.233003812
HULA,FALSE,1,4,833,3.655240191,3.966869876,-0.311629685,2578,FALSE,3,1,Low,0.217985888,3.610621283,6.105431125,4.510887089,1.974868077,5.887186352,0.565078892,0.458543481,4.875206349,-2.845931005,0.044618908,-2.450190934,-0.855646898,1.680372114,-2.231946161,3.090161299,-3.086488597,-1.219966158,1,2,3,4,5,6,7,8,9,1,1.956609565,0.000995258,1.770353011,0.344269758,1.109356642,1.614024806,1.998677699,1.998482156,0.656322473,1,1,1,0.75,1,0.5,1,1,0.75,0.240928413,0.134681597,0.252221221,0.092634879,0.217806348,0.145936775,0.167416831,0.188668214,0.219796375
PANG,FALSE,2,6,797,0.217985888,0.233179852,-0.015193964,2755,FALSE,3,1,High,3.655240191,3.610621283,6.105431125,4.510887089,1.974868077,5.887186352,0.565078892,0.458543481,4.875206349,2.845931005,2.890549913,0.39574007,1.990284107,-1.756882189,0.613984844,-0.347093003,-0.240557593,1.625964847,-1,1,2,3,4,5,6,7,8,1,1.956609565,1.968653917,0.077288473,1.407292697,1.185013758,0.182641271,0.059634455,0.028794717,1.055140539,1,1,1,1,0.75,0.75,1,1,1,0.240928413,0.308816192,0.282380502,0.081525454,0.344523308,0.198441457,0.406960212,0.215528004,0.195074548
FLEE,FALSE,3,2,414,3.610621283,0.548890005,3.061731278,915,TRUE,3,1,Unrecognized,3.655240191,0.217985888,6.105431125,4.510887089,1.974868077,5.887186352,0.565078892,0.458543481,4.875206349,-0.044618908,-2.890549913,-2.494809842,-0.900265806,1.635753206,-2.276565069,3.045542391,-3.131107505,-1.264585066,-2,-1,1,2,3,4,5,6,7,1,0.000995258,1.968653917,1.798026674,0.378598267,1.064911209,1.648619121,1.995390719,1.999945031,0.698551688,1,1,1,0.75,1,1,0.75,1,1,0.134681597,0.308816192,0.345156694,0.314273217,0.285053736,0.211074218,0.210115769,0.177798347,0.230407437
REDO,FALSE,4,1,397,6.105431125,2.221839008,-2.39959319,1496,TRUE,3,1,Unrecognized,3.655240191,0.217985888,3.610621283,4.510887089,1.974868077,5.887186352,0.565078892,0.458543481,4.875206349,2.450190934,-0.39574007,2.494809842,1.594544036,-2.152622259,0.218244774,-0.742833073,-0.636297663,1.230224776,-3,-2,-1,1,2,3,4,5,6,1,1.770353011,0.077288473,1.798026674,1.023745478,1.549550347,0.023721012,0.26344471,0.195698726,0.665974131,1,1,1,0.75,1,1,1,0.75,1,0.252221221,0.282380502,0.345156694,0.224973415,0.275152994,0.238603587,0.206895292,0.345373289,0.221503763
SUED,FALSE,5,3,391,4.510887089,5.47324837,-0.962361281,988,TRUE,3,1,Unrecognized,3.655240191,0.217985888,3.610621283,6.105431125,1.974868077,5.887186352,0.565078892,0.458543481,4.875206349,0.855646898,-1.990284107,0.900265806,-1.594544036,2.536019012,-1.376299263,-2.33737711,-2.230841699,-0.36431926,-4,-3,-2,-1,1,2,3,4,5,1,0.344269758,1.407292697,0.378598267,1.023745478,1.822175697,0.806726894,1.693676482,1.613152695,0.065633466,0.75,1,0.75,0.75,0.75,0.75,1,1,0.75,0.092634879,0.081525454,0.314273217,0.224973415,0.146010134,0.180610013,0.076513822,0.167701262,0.120643236
SWIG,FALSE,6,1,385,1.974868077,5.686154199,2.571899186,537,TRUE,3,1,Unrecognized,3.655240191,0.217985888,3.610621283,6.105431125,4.510887089,5.887186352,0.565078892,0.458543481,4.875206349,-1.680372114,1.756882189,-1.635753206,2.152622259,-2.536019012,2.370867033,1.409789186,1.516324596,-2.900338271,-5,-4,-3,-2,-1,1,2,3,4,1,1.109356642,1.185013758,1.064911209,1.549550347,1.822175697,1.717405351,0.839687597,0.945555203,1.971039041,1,0.75,1,1,0.75,1,1,1,1,0.217806348,0.344523308,0.285053736,0.275152994,0.146010134,0.235669016,0.220112938,0.187257158,0.273237461
PULP,FALSE,7,2,314,5.887186352,6.011902698,-0.124716346,428,TRUE,3,1,Unrecognized,3.655240191,0.217985888,3.610621283,6.105431125,4.510887089,1.974868077,0.565078892,0.458543481,4.875206349,2.231946161,-0.613984844,2.276565069,-0.218244774,1.376299263,-2.370867033,-0.961077847,-0.854542437,1.011980003,-6,-5,-4,-3,-2,-1,1,2,3,1,1.614024806,0.182641271,1.648619121,0.023721012,0.806726894,1.717405351,0.42736331,0.343436295,0.469817049,0.5,0.75,1,1,0.75,1,1,1,0.75,0.145936775,0.198441457,0.211074218,0.238603587,0.180610013,0.235669016,0.152134935,0.189820753,0.231124751
MITE,FALSE,8,2,2069,0.565078892,1.593094146,-1.028015254,1577,TRUE,3,1,Unrecognized,3.655240191,0.217985888,3.610621283,6.105431125,4.510887089,1.974868077,5.887186352,0.458543481,4.875206349,-3.090161299,0.347093003,-3.045542391,0.742833073,2.33737711,-1.409789186,0.961077847,0.106535411,1.97305785,-7,-6,-5,-4,-3,-2,-1,1,2,1,1.998677699,0.059634455,1.995390719,0.26344471,1.693676482,0.839687597,0.42736331,0.005669531,1.391500345,1,1,0.75,1,1,1,1,1,1,0.167416831,0.406960212,0.210115769,0.206895292,0.076513822,0.220112938,0.152134935,0.281161205,0.181390389
INFO,FALSE,9,1,317,0.458543481,0.798514251,-0.33997077,604,TRUE,3,1,Unrecognized,3.655240191,0.217985888,3.610621283,6.105431125,4.510887089,1.974868077,5.887186352,0.565078892,4.875206349,3.086488597,0.240557593,3.131107505,0.636297663,2.230841699,-1.516324596,0.854542437,-0.106535411,1.866522439,-8,-7,-6,-5,-4,-3,-2,-1,1,1,1.998482156,0.028794717,1.999945031,0.195698726,1.613152695,0.945555203,0.343436295,0.005669531,1.291434519,1,1,1,0.75,1,1,1,1,1,0.188668214,0.215528004,0.177798347,0.345373289,0.167701262,0.187257158,0.189820753,0.281161205,0.194259588
DUCT,FALSE,10,5,554,4.875206349,4.609521755,0.265684594,1515,TRUE,3,1,Low,3.655240191,0.217985888,3.610621283,6.105431125,4.510887089,1.974868077,5.887186352,0.565078892,0.458543481,1.219966158,-1.625964847,1.264585066,-1.230224776,0.36431926,2.900338271,-1.011980003,-1.97305785,-1.866522439,-9,-8,-7,-6,-5,-4,-3,-2,-1,1,0.656322473,1.055140539,0.698551688,0.665974131,0.065633466,1.971039041,0.469817049,1.391500345,1.291434519,0.75,1,1,1,0.75,1,0.75,1,1,0.219796375,0.195074548,0.230407437,0.221503763,0.120643236,0.273237461,0.231124751,0.181390389,0.194259588
TILT,FALSE,1,3,1585,0.30710239,0.516063829,-0.208961438,497,TRUE,4,1,Unrecognized,3.737810389,3.18228117,3.219443226,1.635692684,5.522608154,3.118014218,2.223087389,2.732759133,5.255570054,2.852477309,-2.875178779,-2.912340836,-1.328590294,1.067679543,-2.810911828,-1.915984999,-2.425656743,1.334717643,1,2,3,4,5,6,7,8,9,1,1.95849647,1.96472123,1.973836691,0.760155151,0.51784156,1.945821507,1.338374226,1.754479311,0.766108115,1,1,0.75,1,1,1,1,1,1,0.325745523,0.311947812,0.320508969,0.284823018,0.225568479,0.248560197,0.489075107,0.329199553,0.351821843
DUNK,FALSE,2,2,1802,3.737810389,3.989606728,-0.25179634,1255,TRUE,4,1,Unrecognized,0.30710239,3.18228117,3.219443226,1.635692684,5.522608154,3.118014218,2.223087389,2.732759133,5.255570054,-2.852477309,0.555529219,0.518367163,2.102117704,-1.784797765,0.619796171,1.514722999,1.005051256,-1.517759666,-1,1,2,3,4,5,6,7,8,1,1.95849647,0.150378547,0.131370653,1.506672993,1.212371751,0.186003128,0.943956052,0.463955054,0.9469882,1,0.25,1,1,1,1,1,1,0.75,0.325745523,0.160464531,0.422724482,0.15357945,0.285021767,0.242550218,0.268795442,0.199005809,0.227777804
DUSK,FALSE,3,5,553,3.18228117,3.882055877,-0.699774707,1031,TRUE,4,1,Low,0.30710239,3.737810389,3.219443226,1.635692684,5.522608154,3.118014218,2.223087389,2.732759133,5.255570054,2.875178779,-0.555529219,-0.037162056,1.546588485,-2.340326984,0.064266952,0.95919378,0.449522037,-2.073288885,-2,-1,1,2,3,4,5,6,7,1,1.96472123,0.150378547,0.00069043,0.975794523,1.695798216,0.00206441,0.425819752,0.099345103,1.481611472,1,0.25,1,1,1,1,1,1,1,0.311947812,0.160464531,0.248027406,0.25886866,0.11641256,0.095539694,0.125439023,0.341676918,0.203213288
SWAT,FALSE,4,2,384,3.219443226,2.534174969,0.685268257,928,TRUE,4,1,Unrecognized,0.30710239,3.737810389,3.18228117,1.635692684,5.522608154,3.118014218,2.223087389,2.732759133,5.255570054,2.912340836,-0.518367163,0.037162056,1.583750541,-2.303164928,0.101429008,0.996355836,0.486684093,-2.036126828,-3,-2,-1,1,2,3,4,5,6,1,1.973836691,0.131370653,0.00069043,1.012953852,1.668632784,0.005139513,0.456634831,0.116111443,1.448718186,0.75,1,1,1,0.75,1,1,1,1,0.320508969,0.422724482,0.248027406,0.161928084,0.053049809,0.270689238,0.322130411,0.241177604,0.292697122
BETA,FALSE,5,1,1094,1.635692684,1.570796327,0.064896358,895,TRUE,4,1,Unrecognized,0.30710239,3.737810389,3.18228117,3.219443226,5.522608154,3.118014218,2.223087389,2.732759133,5.255570054,1.328590294,-2.102117704,-1.546588485,-1.583750541,2.396269838,-1.482321533,-0.587394705,-1.097066449,2.663307937,-4,-3,-2,-1,1,2,3,4,5,1,0.760155151,1.506672993,0.975794523,1.012953852,1.734869004,0.911640588,0.167612658,0.543791431,1.8877857,1,1,1,1,0.75,1,1,1,1,0.284823018,0.15357945,0.25886866,0.161928084,0.22188058,0.230440116,0.29325494,0.218070881,0.187720704
FATS,FALSE,6,1,1010,5.522608154,5.581086654,-0.0584785,1546,TRUE,4,1,Unrecognized,0.30710239,3.737810389,3.18228117,3.219443226,1.635692684,3.118014218,2.223087389,2.732759133,5.255570054,-1.067679543,1.784797765,2.340326984,2.303164928,-2.396269838,2.404593936,-2.983664543,2.789849021,0.2670381,-5,-4,-3,-2,-1,1,2,3,4,1,0.51784156,1.212371751,1.695798216,1.668632784,1.734869004,1.740488958,1.987555254,1.938773397,0.0354433,1,1,1,0.75,0.75,1,0.75,1,1,0.225568479,0.285021767,0.11641256,0.053049809,0.22188058,0.228598926,0.222321381,0.171594802,0.149562927
MOJO,FALSE,7,1,1732,3.118014218,2.84158389,0.276430327,738,TRUE,4,1,Unrecognized,0.30710239,3.737810389,3.18228117,3.219443226,1.635692684,5.522608154,2.223087389,2.732759133,5.255570054,2.810911828,-0.619796171,-0.064266952,-0.101429008,1.482321533,-2.404593936,0.894926828,0.385255085,-2.137555836,-6,-5,-4,-3,-2,-1,1,2,3,1,1.945821507,0.186003128,0.00206441,0.005139513,0.911640588,1.740488958,0.374424096,0.073297397,1.536901048,1,1,1,1,1,1,1,1,0.75,0.248560197,0.242550218,0.095539694,0.270689238,0.230440116,0.228598926,0.293063777,0.201457379,0.286353348
FLEX,FALSE,8,6,481,2.223087389,2.173038055,0.050049334,1136,TRUE,4,1,High,0.30710239,3.737810389,3.18228117,3.219443226,1.635692684,5.522608154,3.118014218,2.732759133,5.255570054,1.915984999,-1.514722999,-0.95919378,-0.996355836,0.587394705,2.983664543,-0.894926828,-0.509671744,-3.032482665,-7,-6,-5,-4,-3,-2,-1,1,2,1,1.338374226,0.943956052,0.425819752,0.456634831,0.167612658,1.987555254,0.374424096,0.127095292,1.994053408,1,1,1,1,1,0.75,1,0.5,1,0.489075107,0.268795442,0.125439023,0.322130411,0.29325494,0.222321381,0.293063777,0.223890859,0.215120708
APEX,FALSE,9,1,3702,2.732759133,2.671201743,0.06155739,423,TRUE,4,1,Unrecognized,0.30710239,3.737810389,3.18228117,3.219443226,1.635692684,5.522608154,3.118014218,2.223087389,5.255570054,2.425656743,-1.005051256,-0.449522037,-0.486684093,1.097066449,-2.789849021,-0.385255085,0.509671744,-2.522810921,-8,-7,-6,-5,-4,-3,-2,-1,1,1,1.754479311,0.463955054,0.099345103,0.116111443,0.543791431,1.938773397,0.073297397,0.127095292,1.814585709,1,1,1,1,1,1,1,0.5,1,0.329199553,0.199005809,0.341676918,0.241177604,0.218070881,0.171594802,0.201457379,0.223890859,0.264037052
GONG,FALSE,10,6,1211,5.255570054,1.157465944,-2.185081197,1929,TRUE,4,1,High,0.30710239,3.737810389,3.18228117,3.219443226,1.635692684,5.522608154,3.118014218,2.223087389,2.732759133,-1.334717643,1.517759666,2.073288885,2.036126828,-2.663307937,-0.2670381,2.137555836,3.032482665,2.522810921,-9,-8,-7,-6,-5,-4,-3,-2,-1,1,0.766108115,0.9469882,1.481611472,1.448718186,1.8877857,0.0354433,1.536901048,1.994053408,1.814585709,1,0.75,1,1,1,1,0.75,1,1,0.351821843,0.227777804,0.203213288,0.292697122,0.187720704,0.149562927,0.286353348,0.215120708,0.264037052
BIND,FALSE,1,5,696,3.175574391,5.194017475,-2.018443084,1156,TRUE,5,1,Low,5.727122989,0.26055576,3.125849858,3.181427546,0.153651535,2.228350618,4.498112755,4.554917591,4.176372553,-2.551548598,2.915018632,0.049724533,-0.005853155,3.021922856,0.947223774,-1.322538364,-1.3793432,-1.000798162,1,2,3,4,5,6,7,8,9,1,1.830916167,1.974441725,0.00123601,1.71E-05,1.992848111,0.416060929,0.754284297,0.809714328,0.460369496,1,1,1,1,1,1,1,0.75,0.75,0.288010811,0.233922222,0.469151725,0.323306948,0.238463789,0.173414255,0.352743327,0.344599118,0.364754213
CAPS,FALSE,2,5,892,5.727122989,5.44252963,0.28459336,415,TRUE,5,1,Low,3.175574391,0.26055576,3.125849858,3.181427546,0.153651535,2.228350618,4.498112755,4.554917591,4.176372553,2.551548598,-0.816618078,2.601273131,2.545695443,-0.709713853,-2.784412936,1.229010234,1.172205398,1.550750436,-1,1,2,3,4,5,6,7,8,1,1.830916167,0.31531002,1.857544359,1.827645271,0.241451635,1.936886613,0.664829593,0.611879884,0.979955452,1,1,1,1,1,1,1,1,1,0.288010811,0.287959799,0.267308917,0.18029197,0.194451929,0.16818453,0.354695945,0.225613481,0.248349869
TOOT,FALSE,3,1,940,0.26055576,0.60117941,-0.34062365,1162,TRUE,5,1,Unrecognized,3.175574391,5.727122989,3.125849858,3.181427546,0.153651535,2.228350618,4.498112755,4.554917591,4.176372553,-2.915018632,0.816618078,-2.865294099,-2.920871787,0.106904224,-1.967794858,2.045628312,1.988823475,2.367368514,-2,-1,1,2,3,4,5,6,7,1,1.974441725,0.31531002,1.962071768,1.975739881,0.005708817,1.386652057,1.457189026,1.405958272,1.714963701,1,1,0.5,1,0.75,0.75,1,0.75,1,0.233922222,0.287959799,0.266511515,0.314800929,0.177088695,0.274230094,0.281301391,0.422448068,0.269794169
KNOT,FALSE,4,1,900,3.125849858,2.753753785,0.372096073,495,TRUE,5,1,Unrecognized,3.175574391,5.727122989,0.26055576,3.181427546,0.153651535,2.228350618,4.498112755,4.554917591,4.176372553,-0.049724533,-2.601273131,2.865294099,-0.055577688,2.972198323,0.897499241,-1.372262897,-1.429067733,-1.050522695,-3,-2,-1,1,2,3,4,5,6,1,0.00123601,1.857544359,1.962071768,0.001544042,1.985687055,0.376433065,0.802768219,0.858745414,0.502882418,1,1,0.5,0.75,1,0.75,1,0.75,1,0.469151725,0.267308917,0.266511515,0.277927958,0.322305985,0.144979961,0.30340211,0.226156782,0.340378026
KEEN,FALSE,5,1,952,3.181427546,2.869786357,0.311641189,739,TRUE,5,1,Unrecognized,3.175574391,5.727122989,0.26055576,3.125849858,0.153651535,2.228350618,4.498112755,4.554917591,4.176372553,0.005853155,-2.545695443,2.920871787,0.055577688,3.027776011,0.953076929,-1.316685209,-1.373490045,-0.994945007,-4,-3,-2,-1,1,2,3,4,5,1,1.71E-05,1.827645271,1.975739881,0.001544042,1.993529875,0.420822482,0.748614829,0.80397141,0.455450985,1,1,1,0.75,1,1,0.75,1,0.75,0.323306948,0.18029197,0.314800929,0.277927958,0.194028412,0.15168213,0.216879456,0.341339302,0.279096904
POLL,FALSE,6,1,887,0.153651535,0.27673099,-0.123079455,743,TRUE,5,1,Unrecognized,3.175574391,5.727122989,0.26055576,3.125849858,3.181427546,2.228350618,4.498112755,4.554917591,4.176372553,-3.021922856,0.709713853,-0.106904224,-2.972198323,-3.027776011,-2.074699083,1.938724087,1.881919251,2.260464289,-5,-4,-3,-2,-1,1,2,3,4,1,1.992848111,0.241451635,0.005708817,1.985687055,1.993529875,1.482846869,1.359682651,1.306127842,1.636281064,1,1,0.75,1,1,1,0.75,1,1,0.238463789,0.194451929,0.177088695,0.322305985,0.194028412,0.066389577,0.236786755,0.216399587,0.197431835
ODOR,FALSE,7,1,837,2.228350618,2.118452008,0.10989861,608,TRUE,5,1,Unrecognized,3.175574391,5.727122989,0.26055576,3.125849858,3.181427546,0.153651535,4.498112755,4.554917591,4.176372553,-0.947223774,2.784412936,1.967794858,-0.897499241,-0.953076929,2.074699083,-2.269762138,-2.326566974,-1.948021935,-6,-5,-4,-3,-2,-1,1,2,3,1,0.416060929,1.936886613,1.386652057,0.376433065,0.420822482,1.482846869,1.643426351,1.685849705,1.368342566,1,1,0.75,0.75,1,1,1,1,1,0.173414255,0.16818453,0.274230094,0.144979961,0.15168213,0.066389577,0.274291579,0.220469047,0.246059326
VEIL,FALSE,8,1,1558,4.498112755,4.685465504,-0.187352749,680,TRUE,5,1,Unrecognized,3.175574391,5.727122989,0.26055576,3.125849858,3.181427546,0.153651535,2.228350618,4.554917591,4.176372553,1.322538364,-1.229010234,-2.045628312,1.372262897,1.316685209,-1.938724087,2.269762138,-0.056804836,0.321740202,-7,-6,-5,-4,-3,-2,-1,1,2,1,0.754284297,0.664829593,1.457189026,0.802768219,0.748614829,1.359682651,1.643426351,0.001612961,0.051313428,1,1,1,1,0.75,0.75,1,1,1,0.352743327,0.354695945,0.281301391,0.30340211,0.216879456,0.236786755,0.274291579,0.182689759,0.344134921
RUNT,FALSE,9,6,527,4.554917591,2.261569033,2.293348558,1604,TRUE,5,1,High,3.175574391,5.727122989,0.26055576,3.125849858,3.181427546,0.153651535,2.228350618,4.498112755,4.176372553,1.3793432,-1.172205398,-1.988823475,1.429067733,1.373490045,-1.881919251,2.326566974,0.056804836,0.378545038,-8,-7,-6,-5,-4,-3,-2,-1,1,1,0.809714328,0.611879884,1.405958272,0.858745414,0.80397141,1.306127842,1.685849705,0.001612961,0.070796672,0.75,1,0.75,0.75,1,1,1,1,1,0.344599118,0.225613481,0.422448068,0.226156782,0.341339302,0.216399587,0.220469047,0.182689759,0.185512724
DYED,FALSE,10,1,898,4.176372553,4.28242295,-0.106050397,979,TRUE,5,1,Unrecognized,3.175574391,5.727122989,0.26055576,3.125849858,3.181427546,0.153651535,2.228350618,4.498112755,4.554917591,1.000798162,-1.550750436,-2.367368514,1.050522695,0.994945007,-2.260464289,1.948021935,-0.321740202,-0.378545038,-9,-8,-7,-6,-5,-4,-3,-2,-1,1,0.460369496,0.979955452,1.714963701,0.502882418,0.455450985,1.636281064,1.368342566,0.051313428,0.070796672,0.75,1,1,1,0.75,1,1,1,1,0.364754213,0.248349869,0.269794169,0.340378026,0.279096904,0.197431835,0.246059326,0.344134921,0.185512724
GOOF,FALSE,1,1,680,1.303564016,1.56631607,-0.262752054,1049,TRUE,6,1,Unrecognized,0.923898996,4.614285392,5.224680479,0.412362525,5.658990935,4.848258336,1.140395966,3.427666463,5.182857433,0.37966502,2.972463931,2.362068844,0.891201491,1.927758388,2.738490987,0.16316805,-2.124102447,2.40389189,1,2,3,4,5,6,7,8,9,1,0.071211166,1.985731798,1.711248352,0.371522072,1.349429414,1.91984872,0.013282398,1.525502916,1.740016953,1,0.75,0.75,1,0.75,0.5,1,0.25,0.75,0.179010884,0.369886434,0.377298496,0.283193294,0.3267554,0.420847454,0.284481364,0.362752007,0.465538514
ISLE,FALSE,2,1,1344,0.923898996,0.608534152,0.315364844,923,TRUE,6,1,Unrecognized,1.303564016,4.614285392,5.224680479,0.412362525,5.658990935,4.848258336,1.140395966,3.427666463,5.182857433,-0.37966502,2.592798911,1.982403824,0.511536471,1.548093368,2.358825967,-0.21649697,-2.503767467,2.02422687,-1,1,2,3,4,5,6,7,8,1,0.071211166,1.853154397,1.400083082,0.128006592,0.977298991,1.708965066,0.023344075,1.803392649,1.438051992,1,1,1,0.75,1,1,0.75,1,0.75,0.179010884,0.19459478,0.208074603,0.195734291,0.186840853,0.228231373,0.328887792,0.23872054,0.201108001
CLOG,FALSE,3,6,1218,4.614285392,4.766196957,-0.151911565,932,TRUE,6,1,High,1.303564016,0.923898996,5.224680479,0.412362525,5.658990935,4.848258336,1.140395966,3.427666463,5.182857433,-2.972463931,-2.592798911,-0.610395087,-2.08126244,-1.044705543,-0.233972943,-2.809295881,1.186618929,-0.56857204,-2,-1,1,2,3,4,5,6,7,1,1.985731798,1.853154397,0.180578378,1.488583992,0.497843412,0.027247029,1.945295596,0.625203377,0.157329311,0.75,1,1,1,1,0.75,1,0.75,1,0.369886434,0.19459478,0.363825588,0.351956785,0.320537969,0.273944721,0.348986663,0.332238899,0.35964606
PUFF,FALSE,4,1,716,5.224680479,5.207940679,0.016739799,604,TRUE,6,1,Unrecognized,1.303564016,0.923898996,4.614285392,0.412362525,5.658990935,4.848258336,1.140395966,3.427666463,5.182857433,-2.362068844,-1.982403824,0.610395087,-1.470867354,-0.434310457,0.376422143,-2.198900795,1.797014016,0.041823046,-3,-2,-1,1,2,3,4,5,6,1,1.711248352,1.400083082,0.180578378,0.900237256,0.092839593,0.070014211,1.587612058,1.224293192,0.000874456,0.75,1,1,1,1,1,1,0.75,0.75,0.377298496,0.208074603,0.363825588,0.289983526,0.243539606,0.353201871,0.275695495,0.34191784,0.377556442
WILT,FALSE,5,4,1169,0.412362525,0.402790999,0.009571526,760,TRUE,6,1,Low,1.303564016,0.923898996,4.614285392,5.224680479,5.658990935,4.848258336,1.140395966,3.427666463,5.182857433,-0.891201491,-0.511536471,2.08126244,1.470867354,1.036556897,1.847289497,-0.728033441,-3.015303938,1.5126904,-4,-3,-2,-1,1,2,3,4,5,1,0.371522072,0.128006592,1.488583992,0.900237256,0.490813403,1.272983698,0.253515601,1.992036173,0.941926765,1,0.75,1,1,0.75,0.75,0.75,0.75,1,0.283193294,0.195734291,0.351956785,0.289983526,0.373282867,0.214265556,0.242944927,0.220846519,0.303935529
DONT,FALSE,6,1,810,5.658990935,5.240270939,0.418719997,994,TRUE,6,1,Unrecognized,1.303564016,0.923898996,4.614285392,5.224680479,0.412362525,4.848258336,1.140395966,3.427666463,5.182857433,-1.927758388,-1.548093368,1.044705543,0.434310457,-1.036556897,0.8107326,-1.764590338,2.231324472,0.476133503,-5,-4,-3,-2,-1,1,2,3,4,1,1.349429414,0.977298991,0.497843412,0.092839593,0.490813403,0.311032365,1.192583262,1.613533997,0.111226244,0.75,1,1,1,0.75,0.5,1,0.75,0.75,0.3267554,0.186840853,0.320537969,0.243539606,0.373282867,0.251591617,0.178966201,0.223731721,0.33724336
HOOT,FALSE,7,1,683,4.848258336,4.761066178,0.087192158,334,TRUE,6,1,Unrecognized,1.303564016,0.923898996,4.614285392,5.224680479,0.412362525,5.658990935,1.140395966,3.427666463,5.182857433,-2.738490987,-2.358825967,0.233972943,-0.376422143,-1.847289497,-0.8107326,-2.575322938,1.420591872,-0.334599097,-6,-5,-4,-3,-2,-1,1,2,3,1,1.91984872,1.708965066,0.027247029,0.070014211,1.272983698,0.311032365,1.843908094,0.850359712,0.055457962,0.5,1,0.75,1,0.75,0.5,0.75,0.5,0.75,0.420847454,0.228231373,0.273944721,0.353201871,0.214265556,0.251591617,0.243274545,0.369953721,0.387425199
HIVE,FALSE,8,1,2915,1.140395966,1.125605714,0.014790252,891,TRUE,6,1,Unrecognized,1.303564016,0.923898996,4.614285392,5.224680479,0.412362525,5.658990935,4.848258336,3.427666463,5.182857433,-0.16316805,0.21649697,2.809295881,2.198900795,0.728033441,1.764590338,2.575322938,-2.287270497,2.240723841,-7,-6,-5,-4,-3,-2,-1,1,2,1,0.013282398,0.023344075,1.945295596,1.587612058,0.253515601,1.192583262,1.843908094,1.65672984,1.620929169,1,0.75,1,1,0.75,1,0.75,1,0.75,0.284481364,0.328887792,0.348986663,0.275695495,0.242944927,0.178966201,0.243274545,0.239744118,0.301247859
WOOF,FALSE,9,1,966,3.427666463,3.638047736,-0.210381272,1147,TRUE,6,1,Unrecognized,1.303564016,0.923898996,4.614285392,5.224680479,0.412362525,5.658990935,4.848258336,1.140395966,5.182857433,2.124102447,2.503767467,-1.186618929,-1.797014016,3.015303938,-2.231324472,-1.420591872,2.287270497,-1.755190969,-8,-7,-6,-5,-4,-3,-2,-1,1,1,1.525502916,1.803392649,0.625203377,1.224293192,1.992036173,1.613533997,0.850359712,1.65672984,1.183351472,0.25,1,0.75,0.75,0.75,0.75,0.5,1,0.75,0.362752007,0.23872054,0.332238899,0.34191784,0.220846519,0.223731721,0.369953721,0.239744118,0.361857391
POKE,FALSE,10,1,666,5.182857433,5.263927624,-0.081070192,812,TRUE,6,1,Unrecognized,1.303564016,0.923898996,4.614285392,5.224680479,0.412362525,5.658990935,4.848258336,1.140395966,3.427666463,-2.40389189,-2.02422687,0.56857204,-0.041823046,-1.5126904,-0.476133503,0.334599097,-2.240723841,1.755190969,-9,-8,-7,-6,-5,-4,-3,-2,-1,1,1.740016953,1.438051992,0.157329311,0.000874456,0.941926765,0.111226244,0.055457962,1.620929169,1.183351472,0.75,0.75,1,0.75,1,0.75,0.75,0.75,0.75,0.465538514,0.201108001,0.35964606,0.377556442,0.303935529,0.33724336,0.387425199,0.301247859,0.361857391
CHEM,FALSE,1,1,2856,4.27067142,4.172276201,0.098395219,1930,TRUE,7,1,Unrecognized,5.380874683,1.055203339,5.649747408,4.026444183,2.007461821,0.148133535,3.982885506,0.036058705,0.20894659,-1.110203264,-3.067717227,-1.379075989,0.244227237,2.263209598,-2.160647422,0.287785914,-2.048572592,-2.221460478,1,2,3,4,5,6,7,8,9,1,0.555520556,1.997272451,0.809452006,0.029675526,1.638396553,1.556237286,0.041125351,1.459805594,1.605714992,1,0.75,1,1,1,1,1,1,1,0.219583602,0.180046567,0.236950908,0.190870354,0.10697009,0.1475184,0.158055614,0.141547213,0.274127346
SPAT,FALSE,2,4,563,5.380874683,5.476460428,-0.095585744,479,TRUE,7,1,Low,4.27067142,1.055203339,5.649747408,4.026444183,2.007461821,0.148133535,3.982885506,0.036058705,0.20894659,1.110203264,-1.957513963,-0.268872725,1.354430501,-2.909772445,-1.050444158,1.397989178,-0.938369328,-1.111257214,-1,1,2,3,4,5,6,7,8,1,0.555520556,1.377150484,0.035929036,0.785318391,1.973249816,0.502814274,0.828051638,0.408895898,0.556464919,1,0.75,1,1,1,1,0.75,0.75,1,0.219583602,0.339150339,0.258735403,0.374208916,0.139484538,0.257919164,0.308042538,0.272746624,0.163232157
CLAW,FALSE,3,1,1050,1.055203339,0.871479363,0.183723976,1771,TRUE,7,1,Unrecognized,4.27067142,5.380874683,5.649747408,4.026444183,2.007461821,0.148133535,3.982885506,0.036058705,0.20894659,3.067717227,1.957513963,1.688641238,-2.971240844,-0.952258482,0.907069804,-2.927682167,1.019144634,0.846256749,-2,-1,1,2,3,4,5,6,7,1,1.997272451,1.377150484,1.11757234,1.985525186,0.420155477,0.383943488,1.977208259,0.475905376,0.337209253,0.75,0.75,1,1,1,1,0.75,1,1,0.180046567,0.339150339,0.249766596,0.380833705,0.144375072,0.224081678,0.230413985,0.436503912,0.256707942
GRID,FALSE,4,1,651,5.649747408,5.50155128,0.148196128,791,TRUE,7,1,Unrecognized,4.27067142,5.380874683,1.055203339,4.026444183,2.007461821,0.148133535,3.982885506,0.036058705,0.20894659,1.379075989,0.268872725,-1.688641238,1.623303226,-2.64089972,-0.781571433,1.666861903,-0.669496603,-0.842384489,-3,-2,-1,1,2,3,4,5,6,1,0.809452006,0.035929036,1.11757234,1.052482775,1.877250141,0.290192496,1.095917886,0.215865831,0.334314663,1,1,1,1,1,1,1,1,1,0.236950908,0.258735403,0.249766596,0.198991981,0.160190295,0.23003899,0.32271207,0.207906124,0.259913887
DOVE,FALSE,5,1,645,4.026444183,4.136087423,-0.10964324,562,TRUE,7,1,Unrecognized,4.27067142,5.380874683,1.055203339,5.649747408,2.007461821,0.148133535,3.982885506,0.036058705,0.20894659,-0.244227237,-1.354430501,2.971240844,-1.623303226,2.018982362,-2.404874659,0.043558677,-2.292799829,-2.465687715,-4,-3,-2,-1,1,2,3,4,5,1,0.029675526,0.785318391,1.985525186,1.052482775,1.43333144,1.740677594,0.000948529,1.660889592,1.780141138,1,1,1,1,1,0.75,1,1,0.75,0.190870354,0.374208916,0.380833705,0.198991981,0.217152155,0.352705934,0.195755794,0.257546597,0.199600084
OAKS,FALSE,6,1,713,2.007461821,2.077466319,-0.070004498,536,TRUE,7,1,Unrecognized,4.27067142,5.380874683,1.055203339,5.649747408,4.026444183,0.148133535,3.982885506,0.036058705,0.20894659,-2.263209598,2.909772445,0.952258482,2.64089972,-2.018982362,1.859328287,-1.975423685,1.971403117,1.798515231,-5,-4,-3,-2,-1,1,2,3,4,1,1.638396553,1.973249816,0.420155477,1.877250141,1.43333144,1.284545177,1.393676237,1.389977161,1.225755906,1,1,1,1,1,1,0.75,0.75,1,0.10697009,0.139484538,0.144375072,0.160190295,0.217152155,0.218918243,0.1418399,0.118683449,0.120889308
ROSY,FALSE,7,1,717,0.148133535,6.199079309,0.232239533,608,TRUE,7,1,Unrecognized,4.27067142,5.380874683,1.055203339,5.649747408,4.026444183,2.007461821,3.982885506,0.036058705,0.20894659,2.160647422,1.050444158,-0.907069804,0.781571433,2.404874659,-1.859328287,2.448433336,0.11207483,-0.060813056,-6,-5,-4,-3,-2,-1,1,2,3,1,1.556237286,0.502814274,0.383943488,0.290192496,1.740677594,1.284545177,1.769231146,0.006273813,0.001848544,1,1,1,1,0.75,1,1,1,0.75,0.1475184,0.257919164,0.224081678,0.23003899,0.352705934,0.218918243,0.283047809,0.236318706,0.145562571
BIAS,FALSE,8,1,1109,3.982885506,3.9698483,0.013037205,570,TRUE,7,1,Unrecognized,4.27067142,5.380874683,1.055203339,5.649747408,4.026444183,2.007461821,0.148133535,0.036058705,0.20894659,-0.287785914,-1.397989178,2.927682167,-1.666861903,-0.043558677,1.975423685,-2.448433336,-2.336358506,-2.509246392,-7,-6,-5,-4,-3,-2,-1,1,2,1,0.041125351,0.828051638,1.977208259,1.095917886,0.000948529,1.393676237,1.769231146,1.692942435,1.806642998,1,0.75,0.75,1,1,0.75,1,1,1,0.158055614,0.308042538,0.230413985,0.32271207,0.195755794,0.1418399,0.283047809,0.246336103,0.156047838
PALP,FALSE,9,1,980,0.036058705,0.230940072,-0.194881367,842,TRUE,7,1,Unrecognized,4.27067142,5.380874683,1.055203339,5.649747408,4.026444183,2.007461821,0.148133535,3.982885506,0.20894659,2.048572592,0.938369328,-1.019144634,0.669496603,2.292799829,-1.971403117,-0.11207483,2.336358506,-0.172887886,-8,-7,-6,-5,-4,-3,-2,-1,1,1,1.459805594,0.408895898,0.475905376,0.215865831,1.660889592,1.389977161,0.006273813,1.692942435,0.014907922,1,0.75,1,1,1,0.75,1,1,1,0.141547213,0.272746624,0.436503912,0.207906124,0.257546597,0.118683449,0.236318706,0.246336103,0.243608941
LOCO,FALSE,10,1,544,0.20894659,0.111535238,0.097411352,608,TRUE,7,1,Unrecognized,4.27067142,5.380874683,1.055203339,5.649747408,4.026444183,2.007461821,0.148133535,3.982885506,0.036058705,2.221460478,1.111257214,-0.846256749,0.842384489,2.465687715,-1.798515231,0.060813056,2.509246392,0.172887886,-9,-8,-7,-6,-5,-4,-3,-2,-1,1,1.605714992,0.556464919,0.337209253,0.334314663,1.780141138,1.225755906,0.001848544,1.806642998,0.014907922,1,1,1,1,0.75,1,0.75,1,1,0.274127346,0.163232157,0.256707942,0.259913887,0.199600084,0.120889308,0.145562571,0.156047838,0.243608941
PUKE,FALSE,1,1,742,3.007260874,2.837324755,0.169936119,697,TRUE,8,1,Unrecognized,4.00495154,6.0001717,5.231747396,1.325387022,3.383464494,2.84039723,4.682982009,4.967024271,0.91235662,-0.997690666,-2.992910826,-2.224486522,1.681873853,-0.376203619,0.166863645,-1.675721135,-1.959763397,2.094904254,1,2,3,4,5,6,7,8,9,1,0.457755899,1.988967204,1.608119983,1.11084925,0.069933905,0.013889465,1.104732391,1.379232846,1.500440874,1,1,1,0.75,0.75,1,0.75,1,1,0.322017812,0.295577921,0.128583339,0.221573259,0.26884155,0.138926593,0.217645945,0.251018821,0.158537328
HASH,FALSE,2,1,659,4.00495154,3.764746651,0.240204889,713,TRUE,8,1,Unrecognized,3.007260874,6.0001717,5.231747396,1.325387022,3.383464494,2.84039723,4.682982009,4.967024271,0.91235662,0.997690666,-1.99522016,-1.226795856,2.679564519,0.621487047,1.164554311,-0.678030469,-0.962072731,3.09259492,-1,1,2,3,4,5,6,7,8,1,0.457755899,1.411795803,0.662744124,1.895150269,0.186986469,0.604840004,0.221190363,0.428179208,1.998799851,1,0.75,1,1,0.5,1,0.75,1,1,0.322017812,0.380579046,0.288898652,0.243873708,0.357860004,0.261548481,0.273359321,0.290565002,0.248222543
LARK,FALSE,3,1,3216,6.0001717,5.863970572,0.136201128,682,TRUE,8,1,Unrecognized,3.007260874,4.00495154,5.231747396,1.325387022,3.383464494,2.84039723,4.682982009,4.967024271,0.91235662,2.992910826,1.99522016,0.768424304,-1.608400628,2.616707207,-3.123410836,1.317189691,1.033147429,-1.195370227,-2,-1,1,2,3,4,5,6,7,1,1.988967204,1.411795803,0.280993325,1.03759544,1.865381351,1.999834715,0.749103143,0.487881989,0.633331015,1,0.75,1,1,0.5,1,0.75,1,0.75,0.295577921,0.380579046,0.285508032,0.334603041,0.453801671,0.291913108,0.393604797,0.32956878,0.349712413
FLUX,FALSE,4,6,763,5.231747396,5.095673148,0.136074248,841,TRUE,8,1,High,3.007260874,4.00495154,6.0001717,1.325387022,3.383464494,2.84039723,4.682982009,4.967024271,0.91235662,2.224486522,1.226795856,-0.768424304,-2.376824933,1.848282902,2.391350166,0.548765387,0.264723125,-1.963794531,-3,-2,-1,1,2,3,4,5,6,1,1.608119983,0.662744124,0.280993325,1.7215432,1.273939238,1.731523559,0.146830811,0.03483502,1.382959769,1,1,1,1,1,1,1,0.75,1,0.128583339,0.288898652,0.285508032,0.290999534,0.230026717,0.205312852,0.294485988,0.249755121,0.299535666
IDLE,FALSE,5,1,817,1.325387022,1.198849431,0.12653759,668,TRUE,8,1,Unrecognized,3.007260874,4.00495154,6.0001717,5.231747396,3.383464494,2.84039723,4.682982009,4.967024271,0.91235662,-1.681873853,-2.679564519,1.608400628,2.376824933,-2.058077472,-1.515010208,2.92559032,2.641548058,0.413030401,-4,-3,-2,-1,1,2,3,4,5,1,1.11084925,1.895150269,1.03759544,1.7215432,1.468225217,0.944242812,1.976762058,1.877561181,0.084091333,0.75,1,1,1,0.75,1,0.5,1,1,0.221573259,0.243873708,0.334603041,0.290999534,0.30103158,0.264344752,0.365296545,0.246881777,0.361922403
HARE,FALSE,6,1,1599,3.383464494,3.153926776,0.229537718,616,TRUE,8,1,Unrecognized,3.007260874,4.00495154,6.0001717,5.231747396,1.325387022,2.84039723,4.682982009,4.967024271,0.91235662,0.376203619,-0.621487047,-2.616707207,-1.848282902,2.058077472,0.543067264,-1.299517515,-1.583559777,2.471107874,-5,-4,-3,-2,-1,1,2,3,4,1,0.069933905,0.186986469,1.865381351,1.273939238,1.468225217,0.143872342,0.732036301,1.012763104,1.783520532,0.75,0.5,0.5,1,0.75,1,0.5,1,1,0.26884155,0.357860004,0.453801671,0.230026717,0.30103158,0.2549316,0.391709824,0.272412284,0.308528955
TOMB,FALSE,7,1,776,2.84039723,2.806382401,0.034014829,748,TRUE,8,1,Unrecognized,3.007260874,4.00495154,6.0001717,5.231747396,1.325387022,3.383464494,4.682982009,4.967024271,0.91235662,-0.166863645,-1.164554311,3.123410836,-2.391350166,1.515010208,-0.543067264,-1.84258478,-2.126627041,1.92804061,-6,-5,-4,-3,-2,-1,1,2,3,1,0.013889465,0.604840004,1.999834715,1.731523559,0.944242812,0.143872342,1.268454668,1.527649143,1.349693832,1,1,1,1,1,1,1,1,1,0.138926593,0.261548481,0.291913108,0.205312852,0.264344752,0.2549316,0.330686889,0.286314038,0.241105628
VALE,FALSE,8,1,683,4.682982009,4.680980998,0.002001011,1451,TRUE,8,1,Unrecognized,3.007260874,4.00495154,6.0001717,5.231747396,1.325387022,3.383464494,2.84039723,4.967024271,0.91235662,1.675721135,0.678030469,-1.317189691,-0.548765387,-2.92559032,1.299517515,1.84258478,-0.284042262,-2.512559918,-7,-6,-5,-4,-3,-2,-1,1,2,1,1.104732391,0.221190363,0.749103143,0.146830811,1.976762058,0.732036301,1.268454668,0.040069512,1.808596989,0.75,0.75,0.75,1,0.5,0.5,1,1,1,0.217645945,0.273359321,0.393604797,0.294485988,0.365296545,0.391709824,0.330686889,0.268817068,0.322050105
CLIP,FALSE,9,1,866,4.967024271,4.869595489,0.097428782,433,TRUE,8,1,Unrecognized,3.007260874,4.00495154,6.0001717,5.231747396,1.325387022,3.383464494,2.84039723,4.682982009,0.91235662,1.959763397,0.962072731,-1.033147429,-0.264723125,-2.641548058,1.583559777,2.126627041,0.284042262,-2.228517656,-8,-7,-6,-5,-4,-3,-2,-1,1,1,1.379232846,0.428179208,0.487881989,0.03483502,1.877561181,1.012763104,1.527649143,0.040069512,1.61131513,1,1,1,0.75,1,1,1,1,1,0.251018821,0.290565002,0.32956878,0.249755121,0.246881777,0.272412284,0.286314038,0.268817068,0.403087754
LENT,FALSE,10,1,1154,0.91235662,0.877774135,0.034582485,789,TRUE,8,1,Unrecognized,3.007260874,4.00495154,6.0001717,5.231747396,1.325387022,3.383464494,2.84039723,4.682982009,4.967024271,-2.094904254,-3.09259492,1.195370227,1.963794531,-0.413030401,-2.471107874,-1.92804061,2.512559918,2.228517656,-9,-8,-7,-6,-5,-4,-3,-2,-1,1,1.500440874,1.998799851,0.633331015,1.382959769,0.084091333,1.783520532,1.349693832,1.808596989,1.61131513,1,1,0.75,1,1,1,1,1,1,0.158537328,0.248222543,0.349712413,0.299535666,0.361922403,0.308528955,0.241105628,0.322050105,0.403087754
LEST,FALSE,1,6,1008,1.456817485,6.212766278,1.527236515,786,TRUE,9,1,High,4.959899098,4.624820606,0.277186728,4.723747688,2.60980596,4.942916909,3.824671915,5.410826993,4.889543522,2.780103694,3.115182187,1.179630757,3.016255105,-1.152988475,2.797085884,-2.36785443,2.3291758,2.85045927,1,2,3,4,5,6,7,8,9,1,1.935371264,1.999651264,0.618733798,1.992155527,0.594242151,1.941242147,1.715303351,1.687745925,1.957919167,1,0.75,1,1,1,1,1,0.75,0.75,0.254740074,0.316042007,0.182818471,0.261806367,0.320855506,0.381169174,0.277645605,0.35153588,0.289313504
ANTE,FALSE,2,1,674,4.959899098,2.450755635,2.509143463,1009,TRUE,9,1,Unrecognized,1.456817485,4.624820606,0.277186728,4.723747688,2.60980596,4.942916909,3.824671915,5.410826993,4.889543522,-2.780103694,0.335078492,-1.600472937,0.23615141,2.350093138,0.016982189,1.135227182,-0.450927895,0.070355576,-1,1,2,3,4,5,6,7,8,1,1.935371264,0.055615499,1.029672255,0.027754401,1.702779339,0.000144194,0.578073527,0.099956888,0.002473933,1,1,1,1,1,1,0.75,1,1,0.254740074,0.215275342,0.157529549,0.2307084,0.186914443,0.236782453,0.096966439,0.267622231,0.125007625
HELM,FALSE,3,1,3312,4.624820606,5.228118404,-0.603297798,1245,TRUE,9,1,Unrecognized,1.456817485,4.959899098,0.277186728,4.723747688,2.60980596,4.942916909,3.824671915,5.410826993,4.889543522,-3.115182187,-0.335078492,-1.935551429,-0.098927082,2.015014646,-0.318096303,0.80014869,-0.786006387,-0.264722916,-2,-1,1,2,3,4,5,6,7,1,1.999651264,0.055615499,1.356720519,0.004889294,1.429752195,0.050167463,0.303399962,0.293323429,0.034834965,0.75,1,1,0.75,1,1,1,1,0.5,0.316042007,0.215275342,0.088316228,0.230907886,0.254711014,0.210873474,0.323232212,0.329043083,0.185405227
GUMS,FALSE,4,1,1611,0.277186728,0.534301545,-0.257114817,1158,TRUE,9,1,Unrecognized,1.456817485,4.959899098,4.624820606,4.723747688,2.60980596,4.942916909,3.824671915,5.410826993,4.889543522,-1.179630757,1.600472937,1.935551429,1.836624347,-2.332619232,1.617455126,2.73570012,1.149545042,1.670828513,-3,-2,-1,1,2,3,4,5,6,1,0.618733798,1.029672255,1.356720519,1.262708295,1.690241607,1.046641872,1.918750356,0.591097332,1.099865442,1,1,1,1,1,1,1,1,0.75,0.182818471,0.157529549,0.088316228,0.233947555,0.195396467,0.266215761,0.193365936,0.319259496,0.183168714
ZOOM,FALSE,5,1,729,4.723747688,4.707960311,0.015787376,610,TRUE,9,1,Unrecognized,1.456817485,4.959899098,4.624820606,0.277186728,2.60980596,4.942916909,3.824671915,5.410826993,4.889543522,-3.016255105,-0.23615141,0.098927082,-1.836624347,2.113941728,-0.219169221,0.899075772,-0.687079305,-0.165795834,-4,-3,-2,-1,1,2,3,4,5,1,1.992155527,0.027754401,0.004889294,1.262708295,1.516831282,0.023921587,0.377666325,0.226898146,0.013712675,1,1,0.75,1,1,1,1,0.75,0.75,0.261806367,0.2307084,0.230907886,0.233947555,0.207739126,0.302060047,0.214305946,0.384749243,0.201863365
CRIB,FALSE,6,1,673,2.60980596,2.425465994,0.184339966,290,TRUE,9,1,Unrecognized,1.456817485,4.959899098,4.624820606,0.277186728,4.723747688,4.942916909,3.824671915,5.410826993,4.889543522,1.152988475,-2.350093138,-2.015014646,2.332619232,-2.113941728,-2.333110949,-1.214865956,-2.801021033,-2.279737562,-5,-4,-3,-2,-1,1,2,3,4,1,0.594242151,1.702779339,1.429752195,1.690241607,1.516831282,1.69059732,0.651537426,1.942563883,1.651030479,1,1,1,1,1,0.75,1,1,1,0.320855506,0.186914443,0.254711014,0.195396467,0.207739126,0.320980305,0.23283702,0.333956247,0.29404055
WAIL,FALSE,7,2,1532,4.942916909,5.364521449,-0.421604541,1058,TRUE,9,1,Unrecognized,1.456817485,4.959899098,4.624820606,0.277186728,4.723747688,2.60980596,3.824671915,5.410826993,4.889543522,-2.797085884,-0.016982189,0.318096303,-1.617455126,0.219169221,2.333110949,1.118244993,-0.467910084,0.053373387,-6,-5,-4,-3,-2,-1,1,2,3,1,1.941242147,0.000144194,0.050167463,1.046641872,0.023921587,1.69059732,0.562738543,0.107487165,0.001424021,1,1,1,1,1,0.75,0.75,1,1,0.381169174,0.236782453,0.210873474,0.266215761,0.302060047,0.320980305,0.303262356,0.482496497,0.169698948
SANK,FALSE,8,1,806,3.824671915,3.908193721,-0.083521806,875,TRUE,9,1,Unrecognized,1.456817485,4.959899098,4.624820606,0.277186728,4.723747688,2.60980596,4.942916909,5.410826993,4.889543522,2.36785443,-1.135227182,-0.80014869,-2.73570012,-0.899075772,1.214865956,-1.118244993,-1.586155077,-1.064871607,-7,-6,-5,-4,-3,-2,-1,1,2,1,1.715303351,0.578073527,0.303399962,1.918750356,0.377666325,0.651537426,0.562738543,1.015358147,0.515383475,1,0.75,1,1,1,1,0.75,1,1,0.277645605,0.096966439,0.323232212,0.193365936,0.214305946,0.23283702,0.303262356,0.268787848,0.144059084
POUT,FALSE,9,5,672,5.410826993,0.792184031,-1.664542346,1819,TRUE,9,1,Low,1.456817485,4.959899098,4.624820606,0.277186728,4.723747688,2.60980596,4.942916909,3.824671915,4.889543522,-2.3291758,0.450927895,0.786006387,-1.149545042,0.687079305,2.801021033,0.467910084,1.586155077,0.521283471,-8,-7,-6,-5,-4,-3,-2,-1,1,1,1.687745925,0.099956888,0.293323429,0.591097332,0.226898146,1.942563883,0.107487165,1.015358147,0.132819266,0.75,1,1,1,0.75,1,1,1,1,0.35153588,0.267622231,0.329043083,0.319259496,0.384749243,0.333956247,0.482496497,0.268787848,0.148089799
GERM,FALSE,10,1,1041,4.889543522,0.773381071,-2.167022856,1013,TRUE,9,1,Unrecognized,1.456817485,4.959899098,4.624820606,0.277186728,4.723747688,2.60980596,4.942916909,3.824671915,5.410826993,-2.85045927,-0.070355576,0.264722916,-1.670828513,0.165795834,2.279737562,-0.053373387,1.064871607,-0.521283471,-9,-8,-7,-6,-5,-4,-3,-2,-1,1,1.957919167,0.002473933,0.034834965,1.099865442,0.013712675,1.651030479,0.001424021,0.515383475,0.132819266,0.75,1,0.5,0.75,0.75,1,1,1,1,0.289313504,0.125007625,0.185405227,0.183168714,0.201863365,0.29404055,0.169698948,0.144059084,0.148089799
HUGS,FALSE,1,1,1408,2.674309842,2.418731393,0.255578449,792,TRUE,10,1,Unrecognized,3.877998425,5.183704405,1.60592266,1.041879959,4.230685883,3.944932155,1.134734702,1.808417751,3.310022939,-1.203688583,-2.509394563,1.068387181,1.632429883,-1.556376041,-1.270622313,1.53957514,0.865892091,-0.635713097,1,2,3,4,5,6,7,8,9,1,0.641082606,1.806730564,0.518461631,1.061594542,0.985580214,0.704313556,0.968783885,0.352039109,0.195351501,1,0.5,0.75,1,1,1,1,1,1,0.283888728,0.389167659,0.23174281,0.26281438,0.271020908,0.193943982,0.266524098,0.215978451,0.278364514
BLUR,FALSE,2,1,867,3.877998425,2.260371695,1.617626729,1031,TRUE,10,1,Unrecognized,2.674309842,5.183704405,1.60592266,1.041879959,4.230685883,3.944932155,1.134734702,1.808417751,3.310022939,1.203688583,-1.30570598,2.272075764,2.836118465,-0.352687458,-0.06693373,2.743263723,2.069580674,0.567975486,-1,1,2,3,4,5,6,7,8,1,0.641082606,0.73800354,1.645195727,1.95370445,0.061552202,0.002239226,1.921710453,1.478358349,0.157008258,1,0.75,1,0.75,0.75,1,1,0.75,1,0.283888728,0.254485167,0.195786195,0.194453327,0.308964376,0.299990036,0.188871892,0.34253132,0.299773855
BUMS,FALSE,3,1,780,5.183704405,5.355532084,-0.171827679,3953,FALSE,10,1,Unrecognized,2.674309842,3.877998425,1.60592266,1.041879959,4.230685883,3.944932155,1.134734702,1.808417751,3.310022939,2.509394563,1.30570598,-2.705403563,-2.141360861,0.953018522,1.23877225,-2.234215604,-2.907898653,1.873681466,-2,-1,1,2,3,4,5,6,7,1,1.806730564,0.73800354,1.906368306,1.540107245,0.420774869,0.674042774,1.615814465,1.972817605,1.298275251,0.5,0.75,0.75,0.75,1,1,1,0.75,1,0.389167659,0.254485167,0.310670111,0.242436642,0.359473723,0.319743785,0.24324376,0.350920079,0.351031991
RODS,FALSE,4,1,2591,1.60592266,1.647155218,-0.041232558,693,TRUE,10,1,Unrecognized,2.674309842,3.877998425,5.183704405,1.041879959,4.230685883,3.944932155,1.134734702,1.808417751,3.310022939,-1.068387181,-2.272075764,2.705403563,0.564042701,-2.624763222,-2.339009495,0.471187959,-0.20249509,-1.704100279,-3,-2,-1,1,2,3,4,5,6,1,0.518461631,1.645195727,1.906368306,0.154899234,1.869390208,1.694851342,0.108970351,0.02043217,1.132909502,0.75,1,0.75,1,1,1,1,1,1,0.23174281,0.195786195,0.310670111,0.245330668,0.2299376,0.181807596,0.236604069,0.204284507,0.265696316
BARK,FALSE,5,1,975,1.041879959,0.996978964,0.044900995,2612,FALSE,10,1,Unrecognized,2.674309842,3.877998425,5.183704405,1.60592266,4.230685883,3.944932155,1.134734702,1.808417751,3.310022939,-1.632429883,-2.836118465,2.141360861,-0.564042701,3.094379384,-2.903052196,-0.092854742,-0.766537792,-2.26814298,-4,-3,-2,-1,1,2,3,4,5,1,1.061594542,1.95370445,1.540107245,0.154899234,1.998885661,1.971683877,0.004307905,0.279683473,1.64218603,1,0.75,0.75,1,0.75,1,1,0.5,0.75,0.26281438,0.194453327,0.242436642,0.245330668,0.26848693,0.248651681,0.279760667,0.292090172,0.355866817
FAUX,FALSE,6,2,1590,4.230685883,1.013147791,-3.065647216,785,TRUE,10,1,Unrecognized,2.674309842,3.877998425,5.183704405,1.60592266,1.041879959,3.944932155,1.134734702,1.808417751,3.310022939,1.556376041,0.352687458,-0.953018522,2.624763222,-3.094379384,0.285753728,3.095951181,2.422268132,0.920662944,-5,-4,-3,-2,-1,1,2,3,4,1,0.985580214,0.061552202,0.420774869,1.869390208,1.998885661,0.040550536,1.998958609,1.752250958,0.394707416,1,0.75,1,1,0.75,1,0.75,0.75,1,0.271020908,0.308964376,0.359473723,0.2299376,0.26848693,0.228680123,0.298707323,0.336420409,0.283316548
SKIM,FALSE,7,1,1080,3.944932155,4.062974989,-0.118042834,885,TRUE,10,1,Unrecognized,2.674309842,3.877998425,5.183704405,1.60592266,1.041879959,4.230685883,1.134734702,1.808417751,3.310022939,1.270622313,0.06693373,-1.23877225,2.339009495,2.903052196,-0.285753728,2.810197453,2.136514404,0.634909216,-6,-5,-4,-3,-2,-1,1,2,3,1,0.704313556,0.002239226,0.674042774,1.694851342,1.971683877,0.040550536,1.945589318,1.536022158,0.194874456,1,1,1,1,1,1,1,1,1,0.193943982,0.299990036,0.319743785,0.181807596,0.248651681,0.228680123,0.222745526,0.216024364,0.363272033
KNOX,FALSE,8,1,847,1.134734702,1.09153127,0.043203431,1101,TRUE,10,1,Unrecognized,2.674309842,3.877998425,5.183704405,1.60592266,1.041879959,4.230685883,3.944932155,1.808417751,3.310022939,-1.53957514,-2.743263723,2.234215604,-0.471187959,0.092854742,-3.095951181,-2.810197453,-0.673683049,-2.175288237,-7,-6,-5,-4,-3,-2,-1,1,2,1,0.968783885,1.921710453,1.615814465,0.108970351,0.004307905,1.998958609,1.945589318,0.218470767,1.568344098,1,1,1,1,1,0.75,1,1,1,0.266524098,0.188871892,0.24324376,0.236604069,0.279760667,0.298707323,0.222745526,0.352461591,0.264302815
BANE,FALSE,9,1,1058,1.808417751,2.05402574,-0.245607989,1013,TRUE,10,1,Unrecognized,2.674309842,3.877998425,5.183704405,1.60592266,1.041879959,4.230685883,3.944932155,1.134734702,3.310022939,-0.865892091,-2.069580674,2.907898653,0.20249509,0.766537792,-2.422268132,-2.136514404,0.673683049,-1.501605188,-8,-7,-6,-5,-4,-3,-2,-1,1,1,0.352039109,1.478358349,1.972817605,0.02043217,0.279683473,1.752250958,1.536022158,0.218470767,0.930864056,1,0.75,0.75,1,0.5,0.75,1,1,1,0.215978451,0.34253132,0.350920079,0.204284507,0.292090172,0.336420409,0.216024364,0.352461591,0.364585796
PECK,FALSE,10,1,868,3.310022939,3.954937758,-0.644914819,776,TRUE,10,1,Unrecognized,2.674309842,3.877998425,5.183704405,1.60592266,1.041879959,4.230685883,3.944932155,1.134734702,1.808417751,0.635713097,-0.567975486,-1.873681466,1.704100279,2.26814298,-0.920662944,-0.634909216,2.175288237,1.501605188,-9,-8,-7,-6,-5,-4,-3,-2,-1,1,0.195351501,0.157008258,1.298275251,1.132909502,1.64218603,0.394707416,0.194874456,1.568344098,0.930864056,1,1,1,1,0.75,1,1,1,1,0.278364514,0.299773855,0.351031991,0.265696316,0.355866817,0.283316548,0.363272033,0.264302815,0.364585796
MOOT,FALSE,1,1,1376,3.949973628,3.95407775,-0.004104122,1207,TRUE,11,1,Unrecognized,3.322853363,5.221004124,3.961849028,3.721569176,1.459992091,4.36823331,0.097542163,3.574785976,0.121722804,0.627120265,-1.271030496,-0.011875399,0.228404452,2.489981538,-0.418259682,-2.430753842,0.375187652,-2.454934482,1,2,3,4,5,6,7,8,9,1,0.190279264,0.704703512,7.05E-05,0.025971096,1.79510774,0.08620281,1.757814843,0.069561126,1.773368903,1,0.75,1,1,0.75,0.75,1,0.5,1,0.182640214,0.190590183,0.180892647,0.253087601,0.149282793,0.193086236,0.168752467,0.083347499,0.308873985
PINE,FALSE,2,3,869,3.322853363,2.073991624,1.248861739,1287,TRUE,11,1,Unrecognized,3.949973628,5.221004124,3.961849028,3.721569176,1.459992091,4.36823331,0.097542163,3.574785976,0.121722804,-0.627120265,-1.898150761,-0.638995664,-0.398715813,1.862861273,-1.045379947,-3.057874107,-0.251932613,-3.082054748,-1,1,2,3,4,5,6,7,8,1,0.190279264,1.32153908,0.197304862,0.078439679,1.287930336,0.498426735,1.996497649,0.031567524,1.998228142,1,0.75,0.75,1,1,0.5,1,1,0.75,0.182640214,0.257143884,0.265570059,0.331907166,0.279366283,0.336159604,0.317084236,0.146837783,0.186757667
POLO,FALSE,3,1,876,5.221004124,5.342919149,-0.121915024,535,TRUE,11,1,Unrecognized,3.949973628,3.322853363,3.961849028,3.721569176,1.459992091,4.36823331,0.097542163,3.574785976,0.121722804,1.271030496,1.898150761,1.259155097,1.499434948,-2.522173274,0.852770814,-1.159723346,1.646218148,-1.183903987,-2,-1,1,2,3,4,5,6,7,1,0.704703512,1.32153908,0.693378777,0.928699173,1.81421568,0.342101043,0.600406848,1.075350336,0.622687719,0.75,0.75,1,1,1,1,1,1,1,0.190590183,0.257143884,0.191636076,0.195438991,0.13624433,0.276421288,0.327616641,0.044346077,0.177966144
RANG,FALSE,4,1,938,3.961849028,4.214396087,-0.252547059,649,TRUE,11,1,Unrecognized,3.949973628,3.322853363,5.221004124,3.721569176,1.459992091,4.36823331,0.097542163,3.574785976,0.121722804,0.011875399,0.638995664,-1.259155097,0.240279852,2.501856937,-0.406384282,-2.418878442,0.387063051,-2.443059083,-3,-2,-1,1,2,3,4,5,6,1,7.05E-05,0.197304862,0.693378777,0.028728585,1.802253559,0.081443917,1.750013253,0.073978337,1.765786065,1,0.75,1,0.75,1,0.75,1,1,1,0.180892647,0.265570059,0.191636076,0.229231554,0.25910067,0.187179942,0.17218132,0.251121324,0.274294466
LARD,FALSE,5,6,892,3.721569176,1.229573231,2.491995945,1194,TRUE,11,1,High,3.949973628,3.322853363,5.221004124,3.961849028,1.459992091,4.36823331,0.097542163,3.574785976,0.121722804,-0.228404452,0.398715813,-1.499434948,-0.240279852,2.261577085,-0.646664134,-2.659158294,0.1467832,-2.683338935,-4,-3,-2,-1,1,2,3,4,5,1,0.025971096,0.078439679,0.928699173,0.028728585,1.637139145,0.201901814,1.885868159,0.010753326,1.896826389,1,1,1,0.75,1,1,1,1,1,0.253087601,0.331907166,0.195438991,0.229231554,0.260569028,0.373682309,0.307866698,0.188854422,0.258230664
SLIT,FALSE,6,3,1180,1.459992091,1.135349447,0.324642644,1102,TRUE,11,1,Unrecognized,3.949973628,3.322853363,5.221004124,3.961849028,3.721569176,4.36823331,0.097542163,3.574785976,0.121722804,-2.489981538,-1.862861273,2.522173274,-2.501856937,-2.261577085,-2.908241219,1.362449928,-2.114793886,1.338269287,-5,-4,-3,-2,-1,1,2,3,4,1,1.79510774,1.287930336,1.81421568,1.802253559,1.637139145,1.972896877,0.793157657,1.517560615,0.769562713,0.75,1,1,1,1,1,0.75,1,0.75,0.149282793,0.279366283,0.13624433,0.25910067,0.260569028,0.268885138,0.268047692,0.080876746,0.30906359
MINK,FALSE,7,1,916,4.36823331,4.809943104,-0.441709794,627,TRUE,11,1,Unrecognized,3.949973628,3.322853363,5.221004124,3.961849028,3.721569176,1.459992091,0.097542163,3.574785976,0.121722804,0.418259682,1.045379947,-0.852770814,0.406384282,0.646664134,2.908241219,-2.01249416,0.793447334,-2.036674801,-6,-5,-4,-3,-2,-1,1,2,3,1,0.08620281,0.498426735,0.342101043,0.081443917,0.201901814,1.972896877,1.427474968,0.298607686,1.449207827,0.75,0.5,1,0.75,1,1,1,0.75,1,0.193086236,0.336159604,0.276421288,0.187179942,0.373682309,0.268885138,0.383011699,0.23325198,0.226772437
FLEA,FALSE,8,1,2191,0.097542163,1.039299694,-0.941757531,1681,TRUE,11,1,Unrecognized,3.949973628,3.322853363,5.221004124,3.961849028,3.721569176,1.459992091,4.36823331,3.574785976,0.121722804,2.430753842,3.057874107,1.159723346,2.418878442,2.659158294,-1.362449928,2.01249416,2.805941494,-0.024180641,-7,-6,-5,-4,-3,-2,-1,1,2,1,1.757814843,1.996497649,0.600406848,1.750013253,1.885868159,0.793157657,1.427474968,1.944196028,0.000292337,1,1,1,1,1,0.75,1,1,1,0.168752467,0.317084236,0.327616641,0.17218132,0.307866698,0.268047692,0.383011699,0.251254137,0.233761731
MEOW,FALSE,9,1,696,3.574785976,3.747249092,-0.172463116,944,TRUE,11,1,Unrecognized,3.949973628,3.322853363,5.221004124,3.961849028,3.721569176,1.459992091,4.36823331,0.097542163,0.121722804,-0.375187652,0.251932613,-1.646218148,-0.387063051,-0.1467832,2.114793886,-0.793447334,-2.805941494,-2.830122134,-8,-7,-6,-5,-4,-3,-2,-1,1,1,0.069561126,0.031567524,1.075350336,0.073978337,0.010753326,1.517560615,0.298607686,1.944196028,1.951883946,0.5,1,1,1,1,1,0.75,1,1,0.083347499,0.146837783,0.044346077,0.251121324,0.188854422,0.080876746,0.23325198,0.251254137,0.002447406
SPUN,FALSE,10,2,2103,0.121722804,0.03997874,0.081744064,682,TRUE,11,1,Unrecognized,3.949973628,3.322853363,5.221004124,3.961849028,3.721569176,1.459992091,4.36823331,0.097542163,3.574785976,2.454934482,3.082054748,1.183903987,2.443059083,2.683338935,-1.338269287,2.036674801,0.024180641,2.830122134,-9,-8,-7,-6,-5,-4,-3,-2,-1,1,1.773368903,1.998228142,0.622687719,1.765786065,1.896826389,0.769562713,1.449207827,0.000292337,1.951883946,1,0.75,1,1,1,0.75,1,1,1,0.308873985,0.186757667,0.177966144,0.274294466,0.258230664,0.30906359,0.226772437,0.233761731,0.002447406
AMPS,FALSE,1,3,618,0.242737183,0.685791784,-0.443054602,801,TRUE,12,1,Unrecognized,1.578470667,3.897128991,2.798389752,4.07455505,6.12952712,0.779704974,2.551340285,2.354478265,5.21154595,-1.335733485,2.628793498,-2.555652569,2.451367439,0.39639537,-0.536967791,-2.308603103,-2.111741083,1.31437654,1,2,3,4,5,6,7,8,9,1,0.7670959,1.871374606,1.833192603,1.771102638,0.077541284,0.140736296,1.672666664,1.514946087,0.74638097,0.75,1,1,1,1,1,1,1,1,0.177506153,0.223323957,0.126043285,0.115145356,0.241466561,0.172568978,0.227316514,0.133976868,0.217187105
NUNS,FALSE,2,1,811,1.578470667,1.570796327,0.00767434,962,TRUE,12,1,Unrecognized,0.242737183,3.897128991,2.798389752,4.07455505,6.12952712,0.779704974,2.551340285,2.354478265,5.21154595,1.335733485,-2.318658324,-1.219919084,-2.496084383,1.732128854,0.798765693,-0.972869618,-0.776007598,2.650110024,-1,1,2,3,4,5,6,7,8,1,0.7670959,1.680072851,0.656278267,1.798794092,1.160633572,0.302408384,0.4370699,0.286284361,1.881634125,0.75,1,1,1,1,1,1,1,1,0.177506153,0.244997755,0.250754171,0.160338907,0.175757304,0.190374688,0.205673009,0.158687879,0.187720434
PEEP,FALSE,3,1,698,3.897128991,4.107750185,-0.210621194,958,TRUE,12,1,Unrecognized,0.242737183,1.578470667,2.798389752,4.07455505,6.12952712,0.779704974,2.551340285,2.354478265,5.21154595,-2.628793498,2.318658324,1.09873924,-0.177426059,-2.232398129,3.117424018,1.345788706,1.542650726,-1.314416959,-2,-1,1,2,3,4,5,6,7,1,1.871374606,1.680072851,0.545280641,0.015698755,1.614381476,1.999707953,0.776886209,0.971858115,0.746420068,1,1,1,0.75,1,1,1,1,1,0.223323957,0.244997755,0.292329342,0.232964276,0.351599521,0.265145671,0.371086542,0.300808444,0.417770698
SAGE,FALSE,4,4,911,2.798389752,3.283845572,-0.48545582,1973,TRUE,12,1,Low,0.242737183,1.578470667,3.897128991,4.07455505,6.12952712,0.779704974,2.551340285,2.354478265,5.21154595,2.555652569,1.219919084,-1.09873924,-1.276165299,2.952047939,2.018684778,0.247049466,0.443911486,-2.413156199,-3,-2,-1,1,2,3,4,5,6,1,1.833192603,0.656278267,0.545280641,0.709613203,1.982090118,1.433063228,0.030361823,0.09692131,1.746216172,1,1,1,0.75,1,0.75,0.75,1,1,0.126043285,0.250754171,0.292329342,0.213230083,0.340322892,0.319568672,0.270241665,0.312111371,0.329561055
PACT,FALSE,5,5,872,4.07455505,3.85003169,0.22452336,760,TRUE,12,1,Low,0.242737183,1.578470667,3.897128991,2.798389752,6.12952712,0.779704974,2.551340285,2.354478265,5.21154595,-2.451367439,2.496084383,0.177426059,1.276165299,-2.05497207,-2.988335231,1.523214765,1.720076785,-1.1369909,-4,-3,-2,-1,1,2,3,4,5,1,1.771102638,1.798794092,0.015698755,0.709613203,1.465479002,1.98827905,0.95243639,1.148726632,0.579673222,1,1,0.75,0.75,1,0.25,0.5,1,1,0.115145356,0.160338907,0.232964276,0.213230083,0.259927471,0.277472265,0.288917119,0.255335097,0.286543967
TRIM,FALSE,6,1,1005,6.12952712,6.159161529,-0.029634409,1153,TRUE,12,1,Unrecognized,0.242737183,1.578470667,3.897128991,2.798389752,4.07455505,0.779704974,2.551340285,2.354478265,5.21154595,-0.39639537,-1.732128854,2.232398129,-2.952047939,2.05497207,-0.933363161,-2.704998472,-2.508136452,0.91798117,-5,-4,-3,-2,-1,1,2,3,4,1,0.077541284,1.160633572,1.614381476,1.982090118,1.465479002,0.40486537,1.906197086,1.805986483,0.392574895,1,1,1,1,1,0.75,1,1,0.75,0.241466561,0.175757304,0.351599521,0.340322892,0.259927471,0.329266125,0.273993849,0.291007844,0.293043589
TACT,FALSE,7,6,518,0.779704974,0.886882639,-0.107177665,1553,TRUE,12,1,High,0.242737183,1.578470667,3.897128991,2.798389752,4.07455505,6.12952712,2.551340285,2.354478265,5.21154595,0.536967791,-0.798765693,-3.117424018,-2.018684778,2.988335231,0.933363161,-1.771635312,-1.574773291,1.851344331,-6,-5,-4,-3,-2,-1,1,2,3,1,0.140736296,0.302408384,1.999707953,1.433063228,1.98827905,0.40486537,1.199491522,1.003976954,1.276882269,1,1,1,0.75,0.25,0.75,0.5,1,0.75,0.172568978,0.190374688,0.265145671,0.319568672,0.277472265,0.329266125,0.244779041,0.207068557,0.292970029
DAFT,FALSE,8,1,3992,2.551340285,2.463357135,0.087983151,774,TRUE,12,1,Unrecognized,0.242737183,1.578470667,3.897128991,2.798389752,4.07455505,6.12952712,0.779704974,2.354478265,5.21154595,2.308603103,0.972869618,-1.345788706,-0.247049466,-1.523214765,2.704998472,1.771635312,0.19686202,-2.660205665,-7,-6,-5,-4,-3,-2,-1,1,2,1,1.672666664,0.4370699,0.776886209,0.030361823,0.95243639,1.906197086,1.199491522,0.019314828,1.886353587,1,1,1,0.75,0.5,1,0.5,0.75,1,0.227316514,0.205673009,0.371086542,0.270241665,0.288917119,0.273993849,0.244779041,0.238611786,0.442146633
LOAF,FALSE,9,1,1234,2.354478265,2.318111688,0.036366577,853,TRUE,12,1,Unrecognized,0.242737183,1.578470667,3.897128991,2.798389752,4.07455505,6.12952712,0.779704974,2.551340285,5.21154595,2.111741083,0.776007598,-1.542650726,-0.443911486,-1.720076785,2.508136452,1.574773291,-0.19686202,-2.857067685,-8,-7,-6,-5,-4,-3,-2,-1,1,1,1.514946087,0.286284361,0.971858115,0.09692131,1.148726632,1.805986483,1.003976954,0.019314828,1.959795103,1,1,1,1,1,1,1,0.75,0.75,0.133976868,0.158687879,0.300808444,0.312111371,0.255335097,0.291007844,0.207068557,0.238611786,0.226685569
TOON,FALSE,10,1,677,5.21154595,5.260981034,-0.049435083,707,TRUE,12,1,Unrecognized,0.242737183,1.578470667,3.897128991,2.798389752,4.07455505,6.12952712,0.779704974,2.551340285,2.354478265,-1.31437654,-2.650110024,1.314416959,2.413156199,1.1369909,-0.91798117,-1.851344331,2.660205665,2.857067685,-9,-8,-7,-6,-5,-4,-3,-2,-1,1,0.74638097,1.881634125,0.746420068,1.746216172,0.579673222,0.392574895,1.276882269,1.886353587,1.959795103,1,1,1,1,1,0.75,0.75,1,0.75,0.217187105,0.187720434,0.417770698,0.329561055,0.286543967,0.293043589,0.292970029,0.442146633,0.226685569
PLOY,FALSE,1,6,974,5.754213369,5.732000351,0.022213018,708,TRUE,1,2,High,1.210501507,4.562122133,6.081842074,4.42745731,4.497683682,6.251843071,5.272595214,2.821756348,3.231218608,-1.739473446,1.192091236,-0.327628705,1.326756059,1.256529687,-0.497629703,0.481618155,2.932457021,2.522994761,1,2,3,4,5,6,7,8,9,1,1.16787839,0.630282378,0.053191916,0.758374859,0.690880888,0.121283523,0.113753468,1.978210735,1.81469233,1,1,1,1,1,1,0.75,1,1,0.18469341,0.267811904,0.194809742,0.271906656,0.20717747,0.164920373,0.166970301,0.385432831,0.291130335
GULP,FALSE,2,6,723,1.210501507,4.806787477,2.686899338,716,TRUE,1,2,High,5.754213369,4.562122133,6.081842074,4.42745731,4.497683682,6.251843071,5.272595214,2.821756348,3.231218608,1.739473446,2.931564682,1.41184474,3.066229505,2.996003133,1.241843743,2.221091601,-1.61125484,-2.0207171,-1,1,2,3,4,5,6,7,8,1,1.16787839,1.978025083,0.841716903,1.997161542,1.989420553,0.67694805,1.605421442,1.040447476,1.434894193,1,0.75,1,1,0.75,1,0.75,1,1,0.18469341,0.343890925,0.2894324,0.218575149,0.343560356,0.15267739,0.23039655,0.368775267,0.242427434
GAZE,FALSE,3,6,617,4.562122133,2.337189997,2.224932135,1075,TRUE,1,2,High,5.754213369,1.210501507,6.081842074,4.42745731,4.497683682,6.251843071,5.272595214,2.821756348,3.231218608,-1.192091236,-2.931564682,-1.519719942,0.134664823,0.064438451,-1.689720939,-0.710473081,1.740365785,1.330903525,-2,-1,1,2,3,4,5,6,7,1,0.630282378,1.978025083,0.94894582,0.009053613,0.002075439,1.118644484,0.241946579,1.168757998,0.762401501,1,0.75,1,0.5,1,1,1,1,1,0.267811904,0.343890925,0.236054019,0.219330702,0.29651668,0.174044264,0.329754878,0.513398283,0.323133999
NEWT,FALSE,4,6,667,6.081842074,5.682013451,0.399828623,675,TRUE,1,2,High,5.754213369,1.210501507,4.562122133,4.42745731,4.497683682,6.251843071,5.272595214,2.821756348,3.231218608,0.327628705,-1.41184474,1.519719942,1.654384764,1.584158393,-0.170000997,0.809246861,-3.02309958,2.850623467,-3,-2,-1,1,2,3,4,5,6,1,0.053191916,0.841716903,0.94894582,1.083491132,1.013361668,0.014415402,0.309956273,1.992987906,1.957966284,1,1,1,1,1,1,1,1,1,0.194809742,0.2894324,0.236054019,0.195888051,0.195958369,0.107529989,0.180510703,0.287416633,0.353572834
BAKE,FALSE,5,6,1390,4.42745731,4.083397528,0.344059782,725,TRUE,1,2,High,5.754213369,1.210501507,4.562122133,6.081842074,4.497683682,6.251843071,5.272595214,2.821756348,3.231218608,-1.326756059,-3.066229505,-0.134664823,-1.654384764,-0.070226372,-1.824385761,-0.845137904,1.605700963,1.196238702,-4,-3,-2,-1,1,2,3,4,5,1,0.758374859,1.997161542,0.009053613,1.083491132,0.002464858,1.250880206,0.336371872,1.034897549,0.634139141,1,1,0.5,1,1,0.75,1,1,1,0.271906656,0.218575149,0.219330702,0.195888051,0.327537031,0.302442815,0.301163079,0.310049067,0.217977817
HURL,FALSE,6,2,1235,4.497683682,4.853169833,-0.355486151,1435,TRUE,1,2,Unrecognized,5.754213369,1.210501507,4.562122133,6.081842074,4.42745731,6.251843071,5.272595214,2.821756348,3.231218608,-1.256529687,-2.996003133,-0.064438451,-1.584158393,0.070226372,-1.75415939,-0.774911532,1.675927334,1.266465074,-5,-4,-3,-2,-1,1,2,3,4,1,0.690880888,1.989420553,0.002075439,1.013361668,0.002464858,1.182337283,0.285517066,1.104937454,0.700344774,1,0.75,1,1,1,1,1,1,1,0.20717747,0.343560356,0.29651668,0.195958369,0.327537031,0.21688413,0.351639092,0.296012458,0.28791851
BRAS,FALSE,7,6,796,6.251843071,0.013851981,-0.045194217,694,TRUE,1,2,High,5.754213369,1.210501507,4.562122133,6.081842074,4.42745731,4.497683682,5.272595214,2.821756348,3.231218608,0.497629703,-1.241843743,1.689720939,0.170000997,1.824385761,1.75415939,0.979247858,-2.853098583,3.020624464,-6,-5,-4,-3,-2,-1,1,2,3,1,0.121283523,0.67694805,1.118644484,0.014415402,1.250880206,1.182337283,0.442352959,1.958673413,1.992692266,1,1,1,1,0.75,1,1,1,0.75,0.164920373,0.15267739,0.174044264,0.107529989,0.302442815,0.21688413,0.240894573,0.226260904,0.251643198
ATOP,FALSE,8,3,4208,5.272595214,5.640351239,-0.367756026,665,TRUE,1,2,Unrecognized,5.754213369,1.210501507,4.562122133,6.081842074,4.42745731,4.497683682,6.251843071,2.821756348,3.231218608,-0.481618155,-2.221091601,0.710473081,-0.809246861,0.845137904,0.774911532,-0.979247858,2.450838866,2.041376606,-7,-6,-5,-4,-3,-2,-1,1,2,1,0.113753468,1.605421442,0.241946579,0.309956273,0.336371872,0.285517066,0.442352959,1.770765982,1.453403568,0.75,0.75,1,1,1,1,1,1,0.75,0.166970301,0.23039655,0.329754878,0.180510703,0.301163079,0.351639092,0.240894573,0.205701411,0.343205503
WINK,FALSE,9,6,1171,2.821756348,3.590405696,-0.768649349,780,TRUE,1,2,High,5.754213369,1.210501507,4.562122133,6.081842074,4.42745731,4.497683682,6.251843071,5.272595214,3.231218608,-2.932457021,1.61125484,-1.740365785,3.02309958,-1.605700963,-1.675927334,2.853098583,-2.450838866,-0.40946226,-8,-7,-6,-5,-4,-3,-2,-1,1,1,1.978210735,1.040447476,1.168757998,1.992987906,1.034897549,1.104937454,1.958673413,1.770765982,0.082664962,1,1,1,1,1,1,1,1,1,0.385432831,0.368775267,0.513398283,0.287416633,0.310049067,0.296012458,0.226260904,0.205701411,0.294056221
STAG,FALSE,10,6,993,3.231218608,2.896823101,0.334395507,1500,TRUE,1,2,High,5.754213369,1.210501507,4.562122133,6.081842074,4.42745731,4.497683682,6.251843071,5.272595214,2.821756348,-2.522994761,2.0207171,-1.330903525,-2.850623467,-1.196238702,-1.266465074,-3.020624464,-2.041376606,0.40946226,-9,-8,-7,-6,-5,-4,-3,-2,-1,1,1.81469233,1.434894193,0.762401501,1.957966284,0.634139141,0.700344774,1.992692266,1.453403568,0.082664962,1,1,1,1,1,1,0.75,0.75,1,0.291130335,0.242427434,0.323133999,0.353572834,0.217977817,0.28791851,0.251643198,0.343205503,0.294056221
CITE,FALSE,1,6,875,5.175184223,4.149905995,1.025278228,473,TRUE,2,2,High,5.47453296,3.181763792,0.198732908,2.844614463,2.680367545,2.074585378,2.230283745,4.513036888,2.50232367,-0.299348736,1.993420431,-1.306733992,2.33056976,2.494816679,3.100598846,2.944900478,0.662147335,2.672860553,1,2,3,4,5,6,7,8,9,1,0.044471252,1.410155087,0.73899578,1.688757204,1.798030794,1.999159872,1.980718378,0.211326156,1.892141786,1,1,1,1,1,1,1,1,1,0.173892169,0.278550262,0.250016708,0.206466557,0.197760524,0.197636052,0.134269592,0.400301888,0.172368712
PERP,FALSE,2,4,1737,5.47453296,3.866185778,1.608347182,2034,TRUE,2,2,Low,5.175184223,3.181763792,0.198732908,2.844614463,2.680367545,2.074585378,2.230283745,4.513036888,2.50232367,0.299348736,2.292769167,-1.007385255,2.629918497,2.794165415,-2.883237725,-3.038936093,0.961496071,2.97220929,-1,1,2,3,4,5,6,7,8,1,0.044471252,1.660866581,0.46592685,1.871926,1.940251797,1.966811586,1.994735441,0.427706224,1.985688903,1,1,1,0.75,0.75,1,0.75,1,1,0.173892169,0.253620848,0.06491926,0.187744258,0.108416943,0.183750555,0.089524161,0.231617883,0.151640028
DADS,FALSE,3,6,743,3.181763792,2.74053667,0.441227123,659,TRUE,2,2,High,5.175184223,5.47453296,0.198732908,2.844614463,2.680367545,2.074585378,2.230283745,4.513036888,2.50232367,-1.993420431,-2.292769167,2.983030884,0.337149329,0.501396248,1.107178415,0.951480047,-1.331273096,0.679440122,-2,-1,1,2,3,4,5,6,7,1,1.410155087,1.660866581,1.987455399,0.056298504,0.12308769,0.552812966,0.419521441,0.762760505,0.222075356,1,1,1,1,1,1,0.75,0.5,1,0.278550262,0.253620848,0.159842216,0.334821623,0.213053561,0.189125754,0.195330599,0.33405299,0.106862816
HYMN,FALSE,4,6,855,0.198732908,0.359070929,-0.160338021,815,TRUE,2,2,High,5.175184223,5.47453296,3.181763792,2.844614463,2.680367545,2.074585378,2.230283745,4.513036888,2.50232367,1.306733992,1.007385255,-2.983030884,-2.645881555,-2.481634637,-1.87585247,-2.031550837,1.968881327,-2.303590762,-3,-2,-1,1,2,3,4,5,6,1,0.73899578,0.46592685,1.987455399,1.879630693,1.790017971,1.300346726,1.444624061,1.387653798,1.66894937,1,1,1,1,1,0.75,1,1,1,0.250016708,0.06491926,0.159842216,0.13637629,0.237669669,0.211227656,0.237902687,0.154947255,0.155140221
POSH,FALSE,5,6,1185,2.844614463,2.789308554,0.055305909,740,TRUE,2,2,High,5.175184223,5.47453296,3.181763792,0.198732908,2.680367545,2.074585378,2.230283745,4.513036888,2.50232367,-2.33056976,-2.629918497,-0.337149329,2.645881555,0.164246918,0.770029085,0.614330718,-1.668422425,0.342290793,-4,-3,-2,-1,1,2,3,4,5,1,1.688757204,1.871926,0.056298504,1.879630693,0.013458229,0.282109578,0.182840588,1.097471096,0.058011757,1,0.75,1,1,1,1,1,0.75,1,0.206466557,0.187744258,0.334821623,0.13637629,0.148254767,0.352810428,0.190913886,0.241759504,0.216486127
WEPT,FALSE,6,6,1426,2.680367545,2.424597933,0.255769612,791,TRUE,2,2,High,5.175184223,5.47453296,3.181763792,0.198732908,2.844614463,2.074585378,2.230283745,4.513036888,2.50232367,-2.494816679,-2.794165415,-0.501396248,2.481634637,-0.164246918,0.605782167,0.4500838,-1.832669344,0.178043875,-5,-4,-3,-2,-1,1,2,3,4,1,1.798030794,1.940251797,0.12308769,1.790017971,0.013458229,0.177943021,0.099589351,1.258890165,0.015807985,1,0.75,1,1,1,1,0.75,1,1,0.197760524,0.108416943,0.213053561,0.237669669,0.148254767,0.131204992,0.243188746,0.120981972,0.062157016
SHAM,FALSE,7,6,725,2.074585378,1.847008035,0.227577343,710,TRUE,2,2,High,5.175184223,5.47453296,3.181763792,0.198732908,2.844614463,2.680367545,2.230283745,4.513036888,2.50232367,-3.100598846,2.883237725,-1.107178415,1.87585247,-0.770029085,-0.605782167,-0.155698367,-2.438451511,-0.427738292,-6,-5,-4,-3,-2,-1,1,2,3,1,1.999159872,1.966811586,0.552812966,1.300346726,0.282109578,0.177943021,0.012096524,1.762814838,0.090093736,1,1,1,0.75,1,1,0.5,1,1,0.197636052,0.183750555,0.189125754,0.211227656,0.352810428,0.131204992,0.151199718,0.242863433,0.280975804
SEAS,FALSE,8,6,1723,2.230283745,2.462020122,-0.231736377,699,TRUE,2,2,High,5.175184223,5.47453296,3.181763792,0.198732908,2.844614463,2.680367545,2.074585378,4.513036888,2.50232367,-2.944900478,3.038936093,-0.951480047,2.031550837,-0.614330718,-0.4500838,0.155698367,-2.282753143,-0.272039925,-7,-6,-5,-4,-3,-2,-1,1,2,1,1.980718378,1.994735441,0.419521441,1.444624061,0.182840588,0.099589351,0.012096524,1.653316497,0.036775221,1,0.75,0.75,1,1,0.75,0.5,0.75,1,0.134269592,0.089524161,0.195330599,0.237902687,0.190913886,0.243188746,0.151199718,0.108894665,0.192422476
DOCS,FALSE,9,6,928,4.513036888,4.659058811,-0.146021923,1079,TRUE,2,2,High,5.175184223,5.47453296,3.181763792,0.198732908,2.844614463,2.680367545,2.074585378,2.230283745,2.50232367,-0.662147335,-0.961496071,1.331273096,-1.968881327,1.668422425,1.832669344,2.438451511,2.282753143,2.010713218,-8,-7,-6,-5,-4,-3,-2,-1,1,1,0.211326156,0.427706224,0.762760505,1.387653798,1.097471096,1.258890165,1.762814838,1.653316497,1.425864271,1,1,0.5,1,0.75,1,1,0.75,0.75,0.400301888,0.231617883,0.33405299,0.154947255,0.241759504,0.120981972,0.242863433,0.108894665,0.189880963
BLOC,FALSE,10,6,1056,2.50232367,2.373973081,0.128350589,672,TRUE,2,2,High,5.175184223,5.47453296,3.181763792,0.198732908,2.844614463,2.680367545,2.074585378,2.230283745,4.513036888,-2.672860553,-2.97220929,-0.679440122,2.303590762,-0.342290793,-0.178043875,0.427738292,0.272039925,-2.010713218,-9,-8,-7,-6,-5,-4,-3,-2,-1,1,1.892141786,1.985688903,0.222075356,1.66894937,0.058011757,0.015807985,0.090093736,0.036775221,1.425864271,1,1,1,1,1,1,1,1,0.75,0.172368712,0.151640028,0.106862816,0.155140221,0.216486127,0.062157016,0.280975804,0.192422476,0.189880963
PETS,FALSE,1,1,1048,0.998138838,0.867551031,0.130587807,2018,TRUE,3,2,Unrecognized,0.980304352,3.831921208,2.81597246,1.594231314,0.406306364,0.278298243,1.345588184,5.70841872,3.32727963,0.017834485,-2.83378237,-1.817833622,-0.596092477,0.591832474,0.719840595,-0.347449347,1.572905425,-2.329140792,1,2,3,4,5,6,7,8,9,1,0.00015903,1.952999278,1.244532276,0.172464338,0.170080232,0.248089171,0.05975573,1.002109097,1.68772051,1,1,0.75,1,1,1,0.75,1,1,0.307056786,0.207392523,0.203632834,0.196482839,0.152527444,0.242637229,0.189068103,0.104223546,0.131353832
HOOF,FALSE,2,6,581,0.980304352,0.530455137,0.449849215,978,TRUE,3,2,High,0.998138838,3.831921208,2.81597246,1.594231314,0.406306364,0.278298243,1.345588184,5.70841872,3.32727963,-0.017834485,-2.851616855,-1.835668107,-0.613926962,0.573997988,0.70200611,-0.365283832,1.55507094,-2.346975277,-1,1,2,3,4,5,6,7,8,1,0.00015903,1.958250796,1.261785522,0.182607925,0.16026319,0.236451722,0.06597759,0.984275261,1.700557856,1,0.5,1,1,1,0.5,0.75,1,1,0.307056786,0.319396806,0.336125383,0.334372708,0.323912967,0.27168415,0.34218722,0.345621209,0.214178466
GOON,FALSE,3,6,1229,3.831921208,5.50763908,-1.675717872,1245,TRUE,3,2,High,0.998138838,0.980304352,2.81597246,1.594231314,0.406306364,0.278298243,1.345588184,5.70841872,3.32727963,2.83378237,2.851616855,1.015948748,2.237689893,-2.857570464,-2.729562342,2.486333023,-1.876497512,0.504641578,-2,-1,1,2,3,4,5,6,7,1,1.952999278,1.958250796,0.473186249,1.618548105,1.959936112,1.916309632,1.792889745,1.300961925,0.124652175,1,0.5,1,1,1,0.25,1,0.75,1,0.207392523,0.319396806,0.270403151,0.338151908,0.268430608,0.575860897,0.302918809,0.347627133,0.371104986
MELT,FALSE,4,6,1140,2.81597246,2.466851669,0.349120791,536,TRUE,3,2,High,0.998138838,0.980304352,3.831921208,1.594231314,0.406306364,0.278298243,1.345588184,5.70841872,3.32727963,1.817833622,1.835668107,-1.015948748,1.221741145,2.409666096,2.537674217,1.470384275,-2.89244626,-0.51130717,-3,-2,-1,1,2,3,4,5,6,1,1.244532276,1.261785522,0.473186249,0.657989882,1.743888257,1.823116769,0.899756599,1.969123254,0.127894368,0.75,1,1,1,1,1,0.75,0.75,1,0.203632834,0.336125383,0.270403151,0.377564094,0.404102379,0.26922077,0.365218664,0.246108265,0.233068039
BRIE,FALSE,5,6,1043,1.594231314,1.579716696,0.014514618,1025,TRUE,3,2,High,0.998138838,0.980304352,3.831921208,2.81597246,0.406306364,0.278298243,1.345588184,5.70841872,3.32727963,0.596092477,0.613926962,-2.237689893,-1.221741145,1.18792495,1.315933072,0.24864313,2.168997902,-1.733048315,-4,-3,-2,-1,1,2,3,4,5,1,0.172464338,0.182607925,1.618548105,0.657989882,0.626414518,0.747886917,0.030752775,1.563157257,1.161541025,1,1,1,1,1,1,1,1,1,0.196482839,0.334372708,0.338151908,0.377564094,0.276178142,0.377695689,0.298600365,0.340343545,0.236226863
WICK,FALSE,6,6,720,0.406306364,0.522123327,-0.115816963,1160,TRUE,3,2,High,0.998138838,0.980304352,3.831921208,2.81597246,1.594231314,0.278298243,1.345588184,5.70841872,3.32727963,-0.591832474,-0.573997988,2.857570464,-2.409666096,-1.18792495,0.128008121,-0.93928182,0.981072952,-2.920973266,-5,-4,-3,-2,-1,1,2,3,4,1,0.170080232,0.16026319,1.959936112,1.743888257,0.626414518,0.008181858,0.409632155,0.443868857,1.975762093,1,1,1,1,1,1,1,1,0.75,0.152527444,0.323912967,0.268430608,0.404102379,0.276178142,0.245214965,0.39084142,0.306411226,0.245467956
LOON,FALSE,7,6,671,0.278298243,0.410412748,-0.132114505,921,TRUE,3,2,High,0.998138838,0.980304352,3.831921208,2.81597246,1.594231314,0.406306364,1.345588184,5.70841872,3.32727963,-0.719840595,-0.70200611,2.729562342,-2.537674217,-1.315933072,-0.128008121,-1.067289942,0.85306483,-3.048981387,-6,-5,-4,-3,-2,-1,1,2,3,1,0.248089171,0.236451722,1.916309632,1.823116769,0.747886917,0.008181858,0.517500272,0.342322497,1.995714641,1,0.5,0.25,1,1,1,0.75,1,1,0.242637229,0.27168415,0.575860897,0.26922077,0.377695689,0.245214965,0.315075438,0.331168031,0.289769917
LEAF,FALSE,8,6,816,1.345588184,1.017858425,0.327729759,671,TRUE,3,2,High,0.998138838,0.980304352,3.831921208,2.81597246,1.594231314,0.406306364,0.278298243,5.70841872,3.32727963,0.347449347,0.365283832,-2.486333023,-1.470384275,-0.24864313,0.93928182,1.067289942,1.920354772,-1.981691445,-7,-6,-5,-4,-3,-2,-1,1,2,1,0.05975573,0.06597759,1.792889745,0.899756599,0.030752775,0.409632155,0.517500272,1.34248299,1.3994301,0.75,0.75,1,0.75,1,1,0.75,1,0.75,0.189068103,0.34218722,0.302918809,0.365218664,0.298600365,0.39084142,0.315075438,0.459483347,0.283459131
GALL,FALSE,9,6,1004,5.70841872,5.569094649,0.139324071,678,TRUE,3,2,High,0.998138838,0.980304352,3.831921208,2.81597246,1.594231314,0.406306364,0.278298243,1.345588184,3.32727963,-1.572905425,-1.55507094,1.876497512,2.89244626,-2.168997902,-0.981072952,-0.85306483,-1.920354772,2.38113909,-8,-7,-6,-5,-4,-3,-2,-1,1,1,1.002109097,0.984275261,1.300961925,1.969123254,1.563157257,0.443868857,0.342322497,1.34248299,1.724523466,1,1,0.75,0.75,1,1,1,1,1,0.104223546,0.345621209,0.347627133,0.246108265,0.340343545,0.306411226,0.331168031,0.459483347,0.29169314
FLAK,FALSE,10,4,2671,3.32727963,2.908971497,0.418308133,744,TRUE,3,2,Low,0.998138838,0.980304352,3.831921208,2.81597246,1.594231314,0.406306364,0.278298243,1.345588184,5.70841872,2.329140792,2.346975277,-0.504641578,0.51130717,1.733048315,2.920973266,3.048981387,1.981691445,-2.38113909,-9,-8,-7,-6,-5,-4,-3,-2,-1,1,1.68772051,1.700557856,0.124652175,0.127894368,1.161541025,1.975762093,1.995714641,1.3994301,1.724523466,1,1,1,1,1,0.75,1,0.75,1,0.131353832,0.214178466,0.371104986,0.233068039,0.236226863,0.245467956,0.289769917,0.283459131,0.29169314
STUB,FALSE,1,6,1459,5.628276736,5.758144525,-0.129867789,613,TRUE,4,2,High,5.630756617,1.002430472,1.638931489,5.034165265,6.272422124,2.53468641,0.937679652,1.54729753,2.212330639,-0.002479881,-1.657339044,-2.29384006,0.594111471,-0.644145389,3.093590326,-1.592588224,-2.202206101,-2.86723921,1,2,3,4,5,6,7,8,9,1,3.07E-06,1.086434729,1.66166991,0.1713538,0.200386734,1.998848109,1.021790172,1.590283308,1.962600567,1,1,0.75,1,1,1,1,1,1,0.16152444,0.251592454,0.262042905,0.282349992,0.276091454,0.294373149,0.158788312,0.201938722,0.284095414
AILS,FALSE,2,4,2601,5.630756617,5.918450544,-0.287693927,742,TRUE,4,2,Low,5.628276736,1.002430472,1.638931489,5.034165265,6.272422124,2.53468641,0.937679652,1.54729753,2.212330639,0.002479881,-1.654859163,-2.291360179,0.596591352,-0.641665507,3.096070207,-1.590108342,-2.19972622,-2.864759329,-1,1,2,3,4,5,6,7,8,1,3.07E-06,1.083963865,1.659808474,0.172744516,0.198899988,1.998964032,1.019310815,1.588279745,1.961925747,1,1,1,1,1,1,0.75,1,1,0.16152444,0.198145799,0.264969623,0.219636599,0.211681081,0.212395029,0.231965561,0.14342667,0.186701888
LARD,FALSE,3,6,1100,1.002430472,0.942844447,0.059586025,809,TRUE,4,2,High,5.628276736,5.630756617,1.638931489,5.034165265,6.272422124,2.53468641,0.937679652,1.54729753,2.212330639,1.657339044,1.654859163,-0.636501016,2.251450515,1.013193655,-1.532255938,0.06475082,-0.544867057,-1.209900167,-2,-1,1,2,3,4,5,6,7,1,1.086434729,1.083963865,0.195819579,1.629301568,0.470846475,0.961469151,0.002095602,0.144803797,0.646887195,1,1,0.75,1,1,0.5,1,1,0.5,0.251592454,0.198145799,0.492819535,0.300244442,0.517461748,0.263895337,0.157949305,0.447604704,0.27531456
CRUD,FALSE,4,6,798,1.638931489,1.527003137,0.111928352,579,TRUE,4,2,High,5.628276736,5.630756617,1.002430472,5.034165265,6.272422124,2.53468641,0.937679652,1.54729753,2.212330639,2.29384006,2.291360179,0.636501016,2.887951531,1.649694672,-0.895754921,0.701251837,0.091633959,-0.57339915,-3,-2,-1,1,2,3,4,5,6,1,1.66166991,1.659808474,0.195819579,1.968005173,1.078816514,0.375070358,0.235964867,0.004195454,0.159938175,0.75,1,0.75,1,1,1,1,1,1,0.262042905,0.264969623,0.492819535,0.210735184,0.46506263,0.193407248,0.099768865,0.294001343,0.198981529
MUTE,FALSE,5,6,2412,5.034165265,4.769645557,0.264519708,528,TRUE,4,2,High,5.628276736,5.630756617,1.002430472,1.638931489,6.272422124,2.53468641,0.937679652,1.54729753,2.212330639,-0.594111471,-0.596591352,-2.251450515,-2.887951531,-1.238256859,2.499478855,-2.186699694,-2.796317572,2.821834626,-4,-3,-2,-1,1,2,3,4,5,1,0.1713538,0.172744516,1.629301568,1.968005173,0.673555575,1.800831616,1.577696133,1.940982385,1.949311507,1,1,1,1,1,1,1,1,1,0.282349992,0.219636599,0.300244442,0.210735184,0.316535193,0.463997528,0.272466877,0.213938439,0.32943064
POOP,FALSE,6,6,631,6.272422124,0.05369289,-0.064456073,647,TRUE,4,2,High,5.628276736,5.630756617,1.002430472,1.638931489,5.034165265,2.53468641,0.937679652,1.54729753,2.212330639,0.644145389,0.641665507,-1.013193655,-1.649694672,1.238256859,-2.545449593,-0.948442835,-1.558060712,-2.223093822,-5,-4,-3,-2,-1,1,2,3,4,1,0.200386734,0.198899988,0.470846475,1.078816514,0.673555575,1.827507262,0.417050994,0.98726473,1.607013805,1,1,1,1,1,0.75,0.75,0.75,1,0.276091454,0.211681081,0.517461748,0.46506263,0.316535193,0.293695541,0.20666177,0.355742788,0.39049644
HARP,FALSE,7,6,892,2.53468641,3.011966405,-0.477279994,643,TRUE,4,2,High,5.628276736,5.630756617,1.002430472,1.638931489,5.034165265,6.272422124,0.937679652,1.54729753,2.212330639,-3.093590326,-3.096070207,1.532255938,0.895754921,-2.499478855,2.545449593,1.597006758,0.98738888,0.322355771,-6,-5,-4,-3,-2,-1,1,2,3,1,1.998848109,1.998964032,0.961469151,0.375070358,1.800831616,1.827507262,1.02620743,0.449129049,0.051508262,1,1,0.5,1,1,0.75,1,1,0.5,0.294373149,0.212395029,0.263895337,0.193407248,0.463997528,0.293695541,0.24233884,0.1550225,0.407894909
VOWS,FALSE,8,1,1170,0.937679652,3.699442509,-2.761762857,1909,TRUE,4,2,Unrecognized,5.628276736,5.630756617,1.002430472,1.638931489,5.034165265,6.272422124,2.53468641,1.54729753,2.212330639,1.592588224,1.590108342,-0.06475082,-0.701251837,2.186699694,0.948442835,-1.597006758,-0.609617878,-1.274650987,-7,-6,-5,-4,-3,-2,-1,1,2,1,1.021790172,1.019310815,0.002095602,0.235964867,1.577696133,0.417050994,1.02620743,0.180133136,0.708164477,1,0.75,1,1,1,0.75,1,0.75,1,0.158788312,0.231965561,0.157949305,0.099768865,0.272466877,0.20666177,0.24233884,0.146658261,0.192827629
TOFU,FALSE,9,6,817,1.54729753,1.544159646,0.003137884,574,TRUE,4,2,High,5.628276736,5.630756617,1.002430472,1.638931489,5.034165265,6.272422124,2.53468641,0.937679652,2.212330639,2.202206101,2.19972622,0.544867057,-0.091633959,2.796317572,1.558060712,-0.98738888,0.609617878,-0.665033109,-8,-7,-6,-5,-4,-3,-2,-1,1,1,1.590283308,1.588279745,0.144803797,0.004195454,1.940982385,0.98726473,0.449129049,0.180133136,0.213103646,1,1,1,1,1,0.75,1,0.75,1,0.201938722,0.14342667,0.447604704,0.294001343,0.213938439,0.355742788,0.1550225,0.146658261,0.166099037
DART,FALSE,10,6,1340,2.212330639,2.182825663,0.029504976,1024,TRUE,4,2,High,5.628276736,5.630756617,1.002430472,1.638931489,5.034165265,6.272422124,2.53468641,0.937679652,1.54729753,2.86723921,2.864759329,1.209900167,0.57339915,-2.821834626,2.223093822,-0.322355771,1.274650987,0.665033109,-9,-8,-7,-6,-5,-4,-3,-2,-1,1,1.962600567,1.961925747,0.646887195,0.159938175,1.949311507,1.607013805,0.051508262,0.708164477,0.213103646,1,1,0.5,1,1,1,0.5,1,1,0.284095414,0.186701888,0.27531456,0.198981529,0.32943064,0.39049644,0.407894909,0.192827629,0.166099037
FOIL,FALSE,1,6,892,0.182786831,0.694280652,-0.511493821,825,TRUE,5,2,High,4.495723985,0.656518942,1.992377096,0.379782302,2.354445213,0.684484125,1.122147118,4.570559808,5.764986183,1.970248153,-0.47373211,-1.809590265,-0.196995471,-2.171658382,-0.501697294,-0.939360287,1.89541233,0.700985955,1,2,3,4,5,6,7,8,9,1,1.388913382,0.110128139,1.23653096,0.019340939,1.565353748,0.123232428,0.40969549,1.318944868,0.235793354,1,0.75,1,1,0.75,1,0.75,1,0.75,0.314657372,0.352886159,0.204151774,0.321271855,0.321174038,0.280623755,0.254517583,0.349870361,0.206433492
DELI,FALSE,2,4,2684,4.495723985,4.69467604,-0.198952055,698,TRUE,5,2,Low,0.182786831,0.656518942,1.992377096,0.379782302,2.354445213,0.684484125,1.122147118,4.570559808,5.764986183,-1.970248153,-2.443980263,2.503346889,-2.167243624,2.141278773,-2.471945447,-2.90960844,-0.074835823,-1.269262198,-1,1,2,3,4,5,6,7,8,1,1.388913382,1.766378146,1.803142145,1.561706744,1.540038158,1.784040697,1.973212122,0.002798894,0.703014532,1,1,1,1,0.75,1,1,1,1,0.314657372,0.128475602,0.057255742,0.205963062,0.345823057,0.124385177,0.179929985,0.236807659,0.177847747
COPE,FALSE,3,6,967,0.656518942,0.499416136,0.157102806,821,TRUE,5,2,High,0.182786831,4.495723985,1.992377096,0.379782302,2.354445213,0.684484125,1.122147118,4.570559808,5.764986183,0.47373211,2.443980263,-1.335858154,0.276736639,-1.697926271,-0.027965183,-0.465628176,2.369144441,1.174718065,-2,-1,1,2,3,4,5,6,7,1,0.110128139,1.766378146,0.767217143,0.038047833,1.126787775,0.000391,0.106460299,1.716204233,0.614196803,0.75,1,1,1,1,1,1,1,0.5,0.352886159,0.128475602,0.146216381,0.303053807,0.238358982,0.237418884,0.339035748,0.338533805,0.204767582
OARS,FALSE,4,6,955,1.992377096,2.408468948,-0.416091852,488,TRUE,5,2,High,0.182786831,4.495723985,0.656518942,0.379782302,2.354445213,0.684484125,1.122147118,4.570559808,5.764986183,1.809590265,-2.503346889,1.335858154,1.612594794,-0.362068117,1.307892971,0.870229978,-2.578182712,2.51057622,-3,-2,-1,1,2,3,4,5,6,1,1.23653096,1.803142145,0.767217143,1.041786297,0.064833721,0.740114762,0.355349249,1.845438875,1.807428264,1,1,1,0.5,0.75,1,0.75,1,0.75,0.204151774,0.057255742,0.146216381,0.27564818,0.220014452,0.155164641,0.162831846,0.214607852,0.15623865
TABS,FALSE,5,6,871,0.379782302,0.534456587,-0.154674285,2947,FALSE,5,2,High,0.182786831,4.495723985,0.656518942,1.992377096,2.354445213,0.684484125,1.122147118,4.570559808,5.764986183,0.196995471,2.167243624,-0.276736639,-1.612594794,-1.974662911,-0.304701823,-0.742364816,2.092407801,0.897981426,-4,-3,-2,-1,1,2,3,4,5,1,0.019340939,1.561706744,0.038047833,1.041786297,1.392976782,0.046063549,0.263128071,1.49827796,0.376810096,1,1,1,0.5,1,1,0.75,1,1,0.321271855,0.205963062,0.303053807,0.27564818,0.283176259,0.080635919,0.246097835,0.357525655,0.210761835
FERN,FALSE,6,1,970,2.354445213,1.468566979,0.885878234,1213,TRUE,5,2,Unrecognized,0.182786831,4.495723985,0.656518942,1.992377096,0.379782302,0.684484125,1.122147118,4.570559808,5.764986183,2.171658382,-2.141278773,1.697926271,0.362068117,1.974662911,1.669961088,1.232298095,-2.216114595,2.872644336,-5,-4,-3,-2,-1,1,2,3,4,1,1.565353748,1.540038158,1.126787775,0.064833721,1.392976782,1.099002316,0.667929082,1.601452736,1.96405088,0.75,0.75,1,0.75,1,1,0.75,1,0.75,0.321174038,0.345823057,0.238358982,0.220014452,0.283176259,0.218627506,0.264203631,0.292520974,0.276779286
JINX,FALSE,7,6,616,0.684484125,0.70694893,-0.022464805,559,TRUE,5,2,High,0.182786831,4.495723985,0.656518942,1.992377096,0.379782302,2.354445213,1.122147118,4.570559808,5.764986183,0.501697294,2.471945447,0.027965183,-1.307892971,0.304701823,-1.669961088,-0.437662993,2.397109624,1.202683249,-6,-5,-4,-3,-2,-1,1,2,3,1,0.123232428,1.784040697,0.000391,0.740114762,0.046063549,1.099002316,0.094255385,1.735438296,0.64014444,1,1,1,1,1,1,1,1,1,0.280623755,0.124385177,0.237418884,0.155164641,0.080635919,0.218627506,0.262747257,0.238022945,0.185749642
FUSS,FALSE,8,6,799,1.122147118,5.573789031,1.831543394,1810,TRUE,5,2,High,0.182786831,4.495723985,0.656518942,1.992377096,0.379782302,2.354445213,0.684484125,4.570559808,5.764986183,0.939360287,2.90960844,0.465628176,-0.870229978,0.742364816,-1.232298095,0.437662993,2.834772617,1.640346242,-7,-6,-5,-4,-3,-2,-1,1,2,1,0.40969549,1.973212122,0.106460299,0.355349249,0.263128071,0.667929082,0.094255385,1.953298828,1.069493857,0.75,1,1,0.75,0.75,0.75,1,1,1,0.254517583,0.179929985,0.339035748,0.162831846,0.246097835,0.264203631,0.262747257,0.32418484,0.314818644
SWAP,FALSE,9,6,783,4.570559808,4.615264177,-0.044704369,583,TRUE,5,2,High,0.182786831,4.495723985,0.656518942,1.992377096,0.379782302,2.354445213,0.684484125,1.122147118,5.764986183,-1.89541233,0.074835823,-2.369144441,2.578182712,-2.092407801,2.216114595,-2.397109624,-2.834772617,-1.194426375,-8,-7,-6,-5,-4,-3,-2,-1,1,1,1.318944868,0.002798894,1.716204233,1.845438875,1.49827796,1.601452736,1.735438296,1.953298828,0.632453065,1,1,1,1,1,1,1,1,1,0.349870361,0.236807659,0.338533805,0.214607852,0.357525655,0.292520974,0.238022945,0.32418484,0.204069892
GORE,FALSE,10,6,1010,5.764986183,5.578031935,0.186954248,603,TRUE,5,2,High,0.182786831,4.495723985,0.656518942,1.992377096,0.379782302,2.354445213,0.684484125,1.122147118,4.570559808,-0.700985955,1.269262198,-1.174718065,-2.51057622,-0.897981426,-2.872644336,-1.202683249,-1.640346242,1.194426375,-9,-8,-7,-6,-5,-4,-3,-2,-1,1,0.235793354,0.703014532,0.614196803,1.807428264,0.376810096,1.96405088,0.64014444,1.069493857,0.632453065,0.75,1,0.5,0.75,1,0.75,1,1,1,0.206433492,0.177847747,0.204767582,0.15623865,0.210761835,0.276779286,0.185749642,0.314818644,0.204069892
NUKE,FALSE,1,6,2076,4.290549003,4.699162238,-0.408613235,796,TRUE,6,2,High,1.081980791,5.588895688,2.331038428,3.289675414,4.972657102,5.296932716,0.139249905,3.599822774,3.205018543,-3.074617095,-1.298346685,1.959510575,1.000873588,-0.6821081,-1.006383714,-2.131886209,0.690726229,1.08553046,1,2,3,4,5,6,7,8,9,1,1.997757976,0.730908472,1.378998898,0.460433,0.223754566,0.465080377,1.532109291,0.22921646,0.533556451,1,1,1,1,0.75,0.75,1,1,1,0.3984322,0.288253741,0.242471194,0.25210838,0.207234403,0.214984558,0.243862531,0.281204581,0.241907484
WHAM,FALSE,2,6,978,1.081980791,0.98701943,0.09496136,577,TRUE,6,2,High,4.290549003,5.588895688,2.331038428,3.289675414,4.972657102,5.296932716,0.139249905,3.599822774,3.205018543,3.074617095,1.77627041,-1.249057637,-2.207694624,2.392508995,2.068233381,0.942730886,-2.517841983,-2.123037752,-1,1,2,3,4,5,6,7,8,1,1.997757976,1.204031294,0.68378349,1.59470471,1.732313176,1.47717477,0.412419521,1.811693466,1.524596785,1,1,1,1,1,1,1,0.75,1,0.3984322,0.287576321,0.254370159,0.314955611,0.23330112,0.318596789,0.310507413,0.384794615,0.264011134
EDIT,FALSE,3,6,796,5.588895688,5.569729514,0.019166173,556,TRUE,6,2,High,4.290549003,1.081980791,2.331038428,3.289675414,4.972657102,5.296932716,0.139249905,3.599822774,3.205018543,1.298346685,-1.77627041,-3.025328047,2.299220273,0.616238585,0.291962971,-0.833539524,1.989072914,2.383877145,-2,-1,1,2,3,4,5,6,7,1,0.730908472,1.204031294,1.993248881,1.665694373,0.183941792,0.042319286,0.327740388,1.406186219,1.726407953,1,1,1,1,0.75,1,0.75,0.5,1,0.288253741,0.287576321,0.080151567,0.216280011,0.226974776,0.191251711,0.242613456,0.324149729,0.118862185
VANS,FALSE,4,1,838,2.331038428,2.355581332,-0.024542904,495,TRUE,6,2,Unrecognized,4.290549003,1.081980791,5.588895688,3.289675414,4.972657102,5.296932716,0.139249905,3.599822774,3.205018543,-1.959510575,1.249057637,3.025328047,-0.958636986,-2.641618675,-2.965894289,2.191788523,-1.268784346,-0.873980115,-3,-2,-1,1,2,3,4,5,6,1,1.378998898,0.68378349,1.993248881,0.425363978,1.877595037,1.984604708,1.581842402,0.702558274,0.358220669,1,1,1,0.75,1,0.75,1,1,0.5,0.242471194,0.254370159,0.080151567,0.247568215,0.104622345,0.293003651,0.189840264,0.270665849,0.54084238
BEGS,FALSE,5,6,698,3.289675414,3.494846518,-0.205171104,929,TRUE,6,2,High,4.290549003,1.081980791,5.588895688,2.331038428,4.972657102,5.296932716,0.139249905,3.599822774,3.205018543,-1.000873588,2.207694624,-2.299220273,0.958636986,-1.682981688,-2.007257302,-3.132759798,-0.31014736,0.084656871,-4,-3,-2,-1,1,2,3,4,5,1,0.460433,1.59470471,1.665694373,0.425363978,1.11195019,1.422734866,1.999960991,0.047711394,0.003581253,1,1,1,0.75,1,0.75,1,1,0.75,0.25210838,0.314955611,0.216280011,0.247568215,0.244178787,0.28877505,0.247517621,0.3727404,0.231547037
MITE,FALSE,6,6,1126,4.972657102,4.938397431,0.034259671,577,TRUE,6,2,High,4.290549003,1.081980791,5.588895688,2.331038428,3.289675414,5.296932716,0.139249905,3.599822774,3.205018543,0.6821081,-2.392508995,-0.616238585,2.641618675,1.682981688,-0.324275614,-1.449778109,1.372834328,1.76763856,-5,-4,-3,-2,-1,1,2,3,4,1,0.223754566,1.732313176,0.183941792,1.877595037,1.11195019,0.052118219,0.87927696,0.803328458,1.195573523,0.75,1,0.75,1,1,0.75,1,0.75,1,0.207234403,0.23330112,0.226974776,0.104622345,0.244178787,0.377245291,0.220112938,0.189059328,0.096348897
BALE,FALSE,7,6,908,5.296932716,5.470362637,-0.17342992,472,TRUE,6,2,High,4.290549003,1.081980791,5.588895688,2.331038428,3.289675414,4.972657102,0.139249905,3.599822774,3.205018543,1.006383714,-2.068233381,-0.291962971,2.965894289,2.007257302,0.324275614,-1.125502495,1.697109942,2.091914174,-6,-5,-4,-3,-2,-1,1,2,3,1,0.465080377,1.47717477,0.042319286,1.984604708,1.422734866,0.052118219,0.569276923,1.125977992,1.497849916,0.75,1,1,0.75,0.75,0.75,1,1,0.75,0.214984558,0.318596789,0.191251711,0.293003651,0.28877505,0.377245291,0.284485129,0.266731272,0.231272812
