"word","is_sequential","present_trial","recog_rating","recog_RT","target_angle","response_angle","response_error","source_RT","valid_RT","block","session","recog_band","angle_1","angle_2","angle_3","angle_4","angle_5","angle_6","angle_7","angle_8","angle_9","angle_10","offset1","offset2","offset3","offset4","offset5","offset6","offset7","offset8","offset9","offset10","participant"
"FINS",FALSE,0,"6",4092.10000002384,1.2458024890567,3.96433891887795,-2.71853642982124,1014,TRUE,-1,1,"High",1.2458024890567,1.01614567323867,3.94045414323565,0.0101323154836664,5.43436249887283,NA,NA,NA,NA,NA,0,0.229656815818032,-2.69465165417894,1.23567017357304,2.09462529736346,NA,NA,NA,NA,NA,1
"LUMP",FALSE,1,"6",2782,1.01614567323867,0.691431497961224,0.324714175277449,563.900000095367,TRUE,-1,1,"High",1.2458024890567,1.01614567323867,3.94045414323565,0.0101323154836664,5.43436249887283,NA,NA,NA,NA,NA,-0.229656815818032,0,-2.92430846999698,1.00601335775501,1.86496848154543,NA,NA,NA,NA,NA,1
"SEWN",FALSE,2,"1",2182.29999995232,3.94045414323565,3.64051038554479,0.29994375769086,1183.60000002384,TRUE,-1,1,"Unrecognized",1.2458024890567,1.01614567323867,3.94045414323565,0.0101323154836664,5.43436249887283,NA,NA,NA,NA,NA,2.69465165417894,2.92430846999698,0,-2.3528634794276,-1.49390835563718,NA,NA,NA,NA,NA,1
"AQUA",FALSE,3,"6",720.200000047684,0.0101323154836664,0.425987535349112,-0.415855219865446,615.399999976158,TRUE,-1,1,"High",1.2458024890567,1.01614567323867,3.94045414323565,0.0101323154836664,5.43436249887283,NA,NA,NA,NA,NA,-1.23567017357304,-1.00601335775501,2.3528634794276,0,0.858955123790419,NA,NA,NA,NA,NA,1
"PUCK",FALSE,4,"6",1142.70000004768,5.43436249887283,5.60192209175412,-0.167559592881289,1030.20000004768,TRUE,-1,1,"High",1.2458024890567,1.01614567323867,3.94045414323565,0.0101323154836664,5.43436249887283,NA,NA,NA,NA,NA,-2.09462529736346,-1.86496848154543,1.49390835563718,-0.858955123790419,0,NA,NA,NA,NA,NA,1
"MEEK",FALSE,0,"6",1260.10000002384,4.21205691090523,4.71238898038469,-0.500332069479463,863.399999976158,TRUE,0,1,"High",4.21205691090523,3.73716022488401,2.98654696167363,1.38732821680622,3.64130100203177,2.61996261773198,0.84877438579011,2.41523414894899,3.65073557970391,5.80614057848926,0,0.474896686021215,1.2255099492316,2.82472869409901,0.570755908873454,1.59209429317324,-2.91990278206447,1.79682276195624,0.561321331201314,-1.59408366758403,1
"TOLL",FALSE,1,"6",647.200000047684,3.73716022488401,2.97850864652044,0.758651578363574,805.699999928474,TRUE,0,1,"High",4.21205691090523,3.73716022488401,2.98654696167363,1.38732821680622,3.64130100203177,2.61996261773198,0.84877438579011,2.41523414894899,3.65073557970391,5.80614057848926,-0.474896686021215,0,0.750613263210385,2.34983200807779,0.0958592228522388,1.11719760715203,2.8883858390939,1.32192607593502,0.0864246451800992,-2.06898035360524,1
"MOAN",FALSE,2,"6",1074.5,2.98654696167363,2.33646445348993,0.650082508183695,471.399999976158,TRUE,0,1,"High",4.21205691090523,3.73716022488401,2.98654696167363,1.38732821680622,3.64130100203177,2.61996261773198,0.84877438579011,2.41523414894899,3.65073557970391,5.80614057848926,-1.2255099492316,-0.750613263210385,0,1.59921874486741,-0.654754040358146,0.366584343941644,2.13777257588352,0.571312812724637,-0.664188618030285,-2.81959361681563,1
"SIRS",FALSE,3,"6",1352,1.38732821680622,6.03801606181203,1.63249746217377,274.899999976158,FALSE,0,1,"High",4.21205691090523,3.73716022488401,2.98654696167363,1.38732821680622,3.64130100203177,2.61996261773198,0.84877438579011,2.41523414894899,3.65073557970391,5.80614057848926,-2.82472869409901,-2.34983200807779,-1.59921874486741,0,-2.25397278522555,-1.23263440092576,0.53855383101611,-1.02790593214277,-2.26340736289769,1.86437294549655,1
"MOLD",FALSE,4,"6",849.200000047684,3.64130100203177,3.76317759232343,-0.121876590291661,330.300000071526,TRUE,0,1,"High",4.21205691090523,3.73716022488401,2.98654696167363,1.38732821680622,3.64130100203177,2.61996261773198,0.84877438579011,2.41523414894899,3.65073557970391,5.80614057848926,-0.570755908873454,-0.0958592228522388,0.654754040358146,2.25397278522555,0,1.02133838429979,2.79252661624166,1.22606685308278,-0.00943457767213962,-2.16483957645748,1
"UNDO",FALSE,5,"6",1545.5,2.61996261773198,3.90505752023687,-1.28509490250489,1496.5,TRUE,0,1,"High",4.21205691090523,3.73716022488401,2.98654696167363,1.38732821680622,3.64130100203177,2.61996261773198,0.84877438579011,2.41523414894899,3.65073557970391,5.80614057848926,-1.59209429317324,-1.11719760715203,-0.366584343941644,1.23263440092576,-1.02133838429979,0,1.77118823194187,0.204728468782993,-1.03077296197193,3.09700734642231,1
"YAWN",FALSE,6,"6",736.699999928474,0.84877438579011,0.562902226442737,0.285872159347373,314.899999976158,TRUE,0,1,"High",4.21205691090523,3.73716022488401,2.98654696167363,1.38732821680622,3.64130100203177,2.61996261773198,0.84877438579011,2.41523414894899,3.65073557970391,5.80614057848926,2.91990278206447,-2.8883858390939,-2.13777257588352,-0.53855383101611,-2.79252661624166,-1.77118823194187,0,-1.56645976315888,-2.8019611939138,1.32581911448044,1
"NEWT",FALSE,7,"3",2782.19999992847,2.41523414894899,5.76866667835061,2.92975277777796,1028.39999997616,TRUE,0,1,"Unrecognized",4.21205691090523,3.73716022488401,2.98654696167363,1.38732821680622,3.64130100203177,2.61996261773198,0.84877438579011,2.41523414894899,3.65073557970391,5.80614057848926,-1.79682276195624,-1.32192607593502,-0.571312812724637,1.02790593214277,-1.22606685308278,-0.204728468782993,1.56645976315888,0,-1.23550143075492,2.89227887763932,1
"SLAM",FALSE,8,"6",892.700000047684,3.65073557970391,0.0953991100015584,-2.72784883747723,419.100000023842,TRUE,0,1,"High",4.21205691090523,3.73716022488401,2.98654696167363,1.38732821680622,3.64130100203177,2.61996261773198,0.84877438579011,2.41523414894899,3.65073557970391,5.80614057848926,-0.561321331201314,-0.0864246451800992,0.664188618030285,2.26340736289769,0.00943457767213962,1.03077296197193,2.8019611939138,1.23550143075492,0,-2.15540499878534,1
"ODOR",FALSE,9,"6",692.700000047684,5.80614057848926,5.81301362165707,-0.00687304316781212,348.600000023842,TRUE,0,1,"High",4.21205691090523,3.73716022488401,2.98654696167363,1.38732821680622,3.64130100203177,2.61996261773198,0.84877438579011,2.41523414894899,3.65073557970391,5.80614057848926,1.59408366758403,2.06898035360524,2.81959361681563,-1.86437294549655,2.16483957645748,-3.09700734642231,-1.32581911448044,-2.89227887763932,2.15540499878534,0,1
"RAMP",FALSE,0,"6",1349.69999992847,0.696550409500777,2.51699092968581,-1.82044052018503,1248.10000002384,TRUE,1,1,"High",0.696550409500777,4.39423422351095,2.71663934653358,4.48653159604106,0.703828263789565,3.9677972878518,0.747916480326435,4.74473177748532,3.4830466827066,0.0546033544207021,0,2.58550149316941,-2.0200889370328,2.49320412063931,-0.00727785428878847,3.01193842882857,-0.0513660708256581,2.23500393919504,-2.78649627320582,0.641947055080075,1
"GERM",FALSE,1,"6",604.100000023842,4.39423422351095,4.64605597775855,-0.251821754247595,178.5,FALSE,1,1,"High",0.696550409500777,4.39423422351095,2.71663934653358,4.48653159604106,0.703828263789565,3.9677972878518,0.747916480326435,4.74473177748532,3.4830466827066,0.0546033544207021,-2.58550149316941,0,1.67759487697737,-0.0922973725301057,-2.5927793474582,0.426436935659155,-2.63686756399507,-0.350497553974369,0.911187540804356,-1.94355443808934,1
"PULP",FALSE,2,"6",1458.10000002384,2.71663934653358,1.5707963267949,1.14584301973868,1961.29999995232,TRUE,1,1,"High",0.696550409500777,4.39423422351095,2.71663934653358,4.48653159604106,0.703828263789565,3.9677972878518,0.747916480326435,4.74473177748532,3.4830466827066,0.0546033544207021,2.0200889370328,-1.67759487697737,0,-1.76989224950748,2.01281108274401,-1.25115794131822,1.96872286620714,-2.02809243095174,-0.766407336173017,2.66203599211288,1
"HIPS",FALSE,3,"6",715.200000047684,4.48653159604106,4.44550969870585,0.0410218973352086,729.899999976158,TRUE,1,1,"High",0.696550409500777,4.39423422351095,2.71663934653358,4.48653159604106,0.703828263789565,3.9677972878518,0.747916480326435,4.74473177748532,3.4830466827066,0.0546033544207021,-2.49320412063931,0.0922973725301057,1.76989224950748,0,-2.50048197492809,0.518734308189261,-2.54457019146496,-0.258200181444264,1.00348491333446,-1.85125706555923,1
"ACRE",FALSE,4,"6",738.199999928474,0.703828263789565,0.630152109055269,0.0736761547342959,1898.10000002384,TRUE,1,1,"High",0.696550409500777,4.39423422351095,2.71663934653358,4.48653159604106,0.703828263789565,3.9677972878518,0.747916480326435,4.74473177748532,3.4830466827066,0.0546033544207021,0.00727785428878847,2.5927793474582,-2.01281108274401,2.50048197492809,0,3.01921628311736,-0.0440882165368697,2.24228179348383,-2.77921841891703,0.649224909368863,1
"BANE",FALSE,5,"6",782.200000047684,3.9677972878518,4.73919220922403,-0.771394921372238,1441.60000002384,TRUE,1,1,"High",0.696550409500777,4.39423422351095,2.71663934653358,4.48653159604106,0.703828263789565,3.9677972878518,0.747916480326435,4.74473177748532,3.4830466827066,0.0546033544207021,-3.01193842882857,-0.426436935659155,1.25115794131822,-0.518734308189261,-3.01921628311736,0,-3.06330449965423,-0.776934489633524,0.484750605145201,-2.36999137374849,1
"BARK",FALSE,6,"6",760.600000023842,0.747916480326435,5.68719877317775,1.34390301432827,280,FALSE,1,1,"High",0.696550409500777,4.39423422351095,2.71663934653358,4.48653159604106,0.703828263789565,3.9677972878518,0.747916480326435,4.74473177748532,3.4830466827066,0.0546033544207021,0.0513660708256581,2.63686756399507,-1.96872286620714,2.54457019146496,0.0440882165368697,3.06330449965423,0,2.2863700100207,-2.73513020238016,0.693313125905733,1
"EDGY",FALSE,7,"6",600.799999952316,4.74473177748532,5.65642350542389,-0.911691727938575,611.400000095367,TRUE,1,1,"High",0.696550409500777,4.39423422351095,2.71663934653358,4.48653159604106,0.703828263789565,3.9677972878518,0.747916480326435,4.74473177748532,3.4830466827066,0.0546033544207021,-2.23500393919504,0.350497553974369,2.02809243095174,0.258200181444264,-2.24228179348383,0.776934489633524,-2.2863700100207,0,1.26168509477873,-1.59305688411497,1
"BUNK",FALSE,8,"6",720.300000071526,3.4830466827066,0.3393907650189,-3.13952938949189,1273.10000002384,TRUE,1,1,"High",0.696550409500777,4.39423422351095,2.71663934653358,4.48653159604106,0.703828263789565,3.9677972878518,0.747916480326435,4.74473177748532,3.4830466827066,0.0546033544207021,2.78649627320582,-0.911187540804356,0.766407336173017,-1.00348491333446,2.77921841891703,-0.484750605145201,2.73513020238016,-1.26168509477873,0,-2.85474197889369,1
"QUAD",FALSE,9,"6",1007.30000007153,0.0546033544207021,5.68219385051869,0.655594811081601,1018.89999997616,TRUE,1,1,"High",0.696550409500777,4.39423422351095,2.71663934653358,4.48653159604106,0.703828263789565,3.9677972878518,0.747916480326435,4.74473177748532,3.4830466827066,0.0546033544207021,-0.641947055080075,1.94355443808934,-2.66203599211288,1.85125706555923,-0.649224909368863,2.36999137374849,-0.693313125905733,1.59305688411497,2.85474197889369,0,1
"CONS",FALSE,0,"6",1817.5,5.61252143145187,3.28763081145033,2.32489062000154,798.700000047684,TRUE,2,1,"High",5.61252143145187,0.97866607694291,2.06229979387089,4.98524560461599,2.60016706720768,4.84868886875639,4.46478223543958,4.23170011624358,0.0790098259729662,3.4004018383403,0,-1.64932995267063,-2.73296366959861,0.627275826835874,3.01235436424419,0.763832562695482,1.14773919601228,1.38082131520829,-0.749673701700685,2.21211959311157,1
"DUNG",FALSE,1,"5",2712.5,0.97866607694291,1.07941152414452,-0.100745447201614,1111.39999997616,TRUE,2,1,"Low",5.61252143145187,0.97866607694291,2.06229979387089,4.98524560461599,2.60016706720768,4.84868886875639,4.46478223543958,4.23170011624358,0.0790098259729662,3.4004018383403,1.64932995267063,0,-1.08363371692798,2.2766057795065,-1.62150099026477,2.41316251536611,2.79706914868291,3.03015126787891,0.899656250969944,-2.42173576139739,1
"RUNE",FALSE,2,"6",1078.39999997616,2.06229979387089,1.92347658304992,0.138823210820969,848.399999976158,TRUE,2,1,"High",5.61252143145187,0.97866607694291,2.06229979387089,4.98524560461599,2.60016706720768,4.84868886875639,4.46478223543958,4.23170011624358,0.0790098259729662,3.4004018383403,2.73296366959861,1.08363371692798,0,-2.9229458107451,-0.537867273336787,-2.7863890748855,-2.40248244156869,-2.16940032237269,1.98328996789792,-1.33810204446941,1
"VERB",FALSE,3,"6",669.600000023842,4.98524560461599,5.30710451518071,-0.321858910564719,958.399999976158,TRUE,2,1,"High",5.61252143145187,0.97866607694291,2.06229979387089,4.98524560461599,2.60016706720768,4.84868886875639,4.46478223543958,4.23170011624358,0.0790098259729662,3.4004018383403,-0.627275826835874,-2.2766057795065,2.9229458107451,0,2.38507853740832,0.136556735859608,0.52046336917641,0.753545488372411,-1.37694952853656,1.58484376627569,1
"SLEW",FALSE,4,"6",1074.79999995232,2.60016706720768,2.96085937534241,-0.360692308134733,1295.5,TRUE,2,1,"High",5.61252143145187,0.97866607694291,2.06229979387089,4.98524560461599,2.60016706720768,4.84868886875639,4.46478223543958,4.23170011624358,0.0790098259729662,3.4004018383403,-3.01235436424419,1.62150099026477,0.537867273336787,-2.38507853740832,0,-2.24852180154871,-1.86461516823191,-1.63153304903591,2.52115724123471,-0.800234771132623,1
"HULA",FALSE,5,"6",3394,4.84868886875639,4.79417335457107,0.0545155141853133,1080.30000007153,TRUE,2,1,"High",5.61252143145187,0.97866607694291,2.06229979387089,4.98524560461599,2.60016706720768,4.84868886875639,4.46478223543958,4.23170011624358,0.0790098259729662,3.4004018383403,-0.763832562695482,-2.41316251536611,2.7863890748855,-0.136556735859608,2.24852180154871,0,0.383906633316802,0.616988752512803,-1.51350626439617,1.44828703041609,1
"DUDS",FALSE,6,"6",602.5,4.46478223543958,4.45848977382067,0.00629246161891217,1978.70000004768,TRUE,2,1,"High",5.61252143145187,0.97866607694291,2.06229979387089,4.98524560461599,2.60016706720768,4.84868886875639,4.46478223543958,4.23170011624358,0.0790098259729662,3.4004018383403,-1.14773919601228,-2.79706914868291,2.40248244156869,-0.52046336917641,1.86461516823191,-0.383906633316802,0,0.233082119196001,-1.89741289771297,1.06438039709928,1
"BOAR",FALSE,7,"6",692,4.23170011624358,5.61191843949595,-1.38021832325237,799.200000047684,TRUE,2,1,"High",5.61252143145187,0.97866607694291,2.06229979387089,4.98524560461599,2.60016706720768,4.84868886875639,4.46478223543958,4.23170011624358,0.0790098259729662,3.4004018383403,-1.38082131520829,-3.03015126787891,2.16940032237269,-0.753545488372411,1.63153304903591,-0.616988752512803,-0.233082119196001,0,-2.13049501690897,0.831298277903284,1
"GRIT",FALSE,8,"6",646.600000023842,0.0790098259729662,0.245849853032539,-0.166840027059573,849,TRUE,2,1,"High",5.61252143145187,0.97866607694291,2.06229979387089,4.98524560461599,2.60016706720768,4.84868886875639,4.46478223543958,4.23170011624358,0.0790098259729662,3.4004018383403,0.749673701700685,-0.899656250969944,-1.98328996789792,1.37694952853656,-2.52115724123471,1.51350626439617,1.89741289771297,2.13049501690897,0,2.96179329481225,1
"WOMB",FALSE,9,"6",602.5,3.4004018383403,5.62013404536174,-2.21973220702144,670.299999952316,TRUE,2,1,"High",5.61252143145187,0.97866607694291,2.06229979387089,4.98524560461599,2.60016706720768,4.84868886875639,4.46478223543958,4.23170011624358,0.0790098259729662,3.4004018383403,-2.21211959311157,2.42173576139739,1.33810204446941,-1.58484376627569,0.800234771132623,-1.44828703041609,-1.06438039709928,-0.831298277903284,-2.96179329481225,0,1
"SASH",FALSE,0,"6",737.399999976158,1.8805486707541,1.99001987186811,-0.109471201114006,849,TRUE,3,1,"High",1.8805486707541,1.7642565516363,5.38008993140736,2.29545675697301,6.12375579036249,1.45503292539834,3.34170620931397,2.88045547478016,0.448232432785451,6.26283129551932,0,0.116292119117796,2.78364404652633,-0.414908086218909,2.0399781875712,0.425515745355764,-1.46115753855988,-0.999906804026056,1.43231623796865,1.90090268241436,1
"DOCS",FALSE,1,"6",1637.5,1.7642565516363,2.33349983082428,-0.56924327918798,1139.5,TRUE,3,1,"High",1.8805486707541,1.7642565516363,5.38008993140736,2.29545675697301,6.12375579036249,1.45503292539834,3.34170620931397,2.88045547478016,0.448232432785451,6.26283129551932,-0.116292119117796,0,2.66735192740853,-0.531200205336705,1.9236860684534,0.309223626237967,-1.57744965767767,-1.11619892314385,1.31602411885085,1.78461056329657,1
"LONE",FALSE,2,"6",647.600000023842,5.38008993140736,5.4546618735521,-0.0745719421447406,630.199999928474,TRUE,3,1,"High",1.8805486707541,1.7642565516363,5.38008993140736,2.29545675697301,6.12375579036249,1.45503292539834,3.34170620931397,2.88045547478016,0.448232432785451,6.26283129551932,-2.78364404652633,-2.66735192740853,0,3.08463317443435,-0.743665858955131,-2.35812830117057,2.03838372209338,2.4996344566272,-1.35132780855768,-0.882741364111967,1
"HICK",FALSE,3,"6",625.599999904633,2.29545675697301,1.62450806049598,0.670948696477026,929,TRUE,3,1,"High",1.8805486707541,1.7642565516363,5.38008993140736,2.29545675697301,6.12375579036249,1.45503292539834,3.34170620931397,2.88045547478016,0.448232432785451,6.26283129551932,0.414908086218909,0.531200205336705,-3.08463317443435,0,2.45488627379011,0.840423831574673,-1.04624945234097,-0.584998717807147,1.84722432418756,2.31581076863327,1
"DOLE",FALSE,4,"6",827.899999976158,6.12375579036249,5.93258020765376,0.191175582708733,4015.10000002384,TRUE,3,1,"High",1.8805486707541,1.7642565516363,5.38008993140736,2.29545675697301,6.12375579036249,1.45503292539834,3.34170620931397,2.88045547478016,0.448232432785451,6.26283129551932,-2.0399781875712,-1.9236860684534,0.743665858955131,-2.45488627379011,0,-1.61446244221543,2.78204958104851,-3.03988499159725,-0.60766194960255,-0.139075505156836,1
"GUMS",FALSE,5,"6",1665.39999997616,1.45503292539834,1.39471910832066,0.0603138170776763,806,TRUE,3,1,"High",1.8805486707541,1.7642565516363,5.38008993140736,2.29545675697301,6.12375579036249,1.45503292539834,3.34170620931397,2.88045547478016,0.448232432785451,6.26283129551932,-0.425515745355764,-0.309223626237967,2.35812830117057,-0.840423831574673,1.61446244221543,0,-1.88667328391564,-1.42542254938182,1.00680049261288,1.4753869370586,1
"RANG",FALSE,6,"6",5379,3.34170620931397,3.60052338858576,-0.258817179271784,2807.70000004768,TRUE,3,1,"High",1.8805486707541,1.7642565516363,5.38008993140736,2.29545675697301,6.12375579036249,1.45503292539834,3.34170620931397,2.88045547478016,0.448232432785451,6.26283129551932,1.46115753855988,1.57744965767767,-2.03838372209338,1.04624945234097,-2.78204958104851,1.88667328391564,0,0.46125073453382,2.89347377652852,-2.92112508620535,1
"SLIT",FALSE,7,"6",714.599999904633,2.88045547478016,2.73647642195683,0.143979052823327,450.800000071526,TRUE,3,1,"High",1.8805486707541,1.7642565516363,5.38008993140736,2.29545675697301,6.12375579036249,1.45503292539834,3.34170620931397,2.88045547478016,0.448232432785451,6.26283129551932,0.999906804026056,1.11619892314385,-2.4996344566272,0.584998717807147,3.03988499159725,1.42542254938182,-0.46125073453382,0,2.4322230419947,2.90080948644042,1
"HONK",FALSE,8,"6",739.399999976158,0.448232432785451,0.518261968030567,-0.0700295352451156,981.299999952316,TRUE,3,1,"High",1.8805486707541,1.7642565516363,5.38008993140736,2.29545675697301,6.12375579036249,1.45503292539834,3.34170620931397,2.88045547478016,0.448232432785451,6.26283129551932,-1.43231623796865,-1.31602411885085,1.35132780855768,-1.84722432418756,0.60766194960255,-1.00680049261288,-2.89347377652852,-2.4322230419947,0,0.468586444445714,1
"REDO",FALSE,9,"6",1030.70000004768,6.26283129551932,0.0142846608605626,-0.0346386725208252,976.399999976158,TRUE,3,1,"High",1.8805486707541,1.7642565516363,5.38008993140736,2.29545675697301,6.12375579036249,1.45503292539834,3.34170620931397,2.88045547478016,0.448232432785451,6.26283129551932,-1.90090268241436,-1.78461056329657,0.882741364111967,-2.31581076863327,0.139075505156836,-1.4753869370586,2.92112508620535,-2.90080948644042,-0.468586444445714,0,1
"HUGS",FALSE,0,"6",670.700000047684,0.738628939943863,0.78918118998726,-0.0505522500433966,694.899999976158,TRUE,4,1,"High",0.738628939943863,4.34549666377573,4.27818628475443,0.948179310650233,1.76360588445919,4.55664038098496,3.83534848552442,1.23356779724302,4.68979876638882,5.14657846953043,0,2.67631758334772,2.74362796236902,-0.20955037070637,-1.02497694451533,2.46517386613849,-3.09671954558055,-0.494938857299153,2.33201548073463,1.87523577759302,1
"POUT",FALSE,1,"6",3503,4.34549666377573,4.10407710338039,0.241419560395342,1013.10000002384,TRUE,4,1,"High",0.738628939943863,4.34549666377573,4.27818628475443,0.948179310650233,1.76360588445919,4.55664038098496,3.83534848552442,1.23356779724302,4.68979876638882,5.14657846953043,-2.67631758334772,0,0.0673103790213041,-2.88586795405409,2.58189077931654,-0.211143717209227,0.510148178251317,3.11192886653272,-0.344302102613089,-0.801081805754698,1
"BIAS",FALSE,2,"1",3186.19999992847,4.27818628475443,2.71710940915901,1.56107687559542,1148.40000009537,TRUE,4,1,"Unrecognized",0.738628939943863,4.34549666377573,4.27818628475443,0.948179310650233,1.76360588445919,4.55664038098496,3.83534848552442,1.23356779724302,4.68979876638882,5.14657846953043,-2.74362796236902,-0.0673103790213041,0,-2.95317833307539,2.51458040029523,-0.278454096230531,0.442837799230013,3.04461848751141,-0.411612481634394,-0.868392184776003,1
"FRET",FALSE,3,"1",809.399999976158,0.948179310650233,0.619935775484723,0.32824353516551,1054.10000002384,TRUE,4,1,"Unrecognized",0.738628939943863,4.34549666377573,4.27818628475443,0.948179310650233,1.76360588445919,4.55664038098496,3.83534848552442,1.23356779724302,4.68979876638882,5.14657846953043,0.20955037070637,2.88586795405409,2.95317833307539,0,-0.815426573808962,2.67472423684486,-2.88716917487418,-0.285388486592783,2.541565851441,2.08478614829939,1
"THUG",FALSE,4,"6",668.700000047684,1.76360588445919,2.06613480605687,-0.302528921597678,947.799999952316,TRUE,4,1,"High",0.738628939943863,4.34549666377573,4.27818628475443,0.948179310650233,1.76360588445919,4.55664038098496,3.83534848552442,1.23356779724302,4.68979876638882,5.14657846953043,1.02497694451533,-2.58189077931654,-2.51458040029523,0.815426573808962,0,-2.79303449652576,-2.07174260106522,0.530038087216178,-2.92619288192963,2.90021272210835,1
"LICE",FALSE,5,"6",670.5,4.55664038098496,4.59125370261198,-0.0346133216270239,1148.30000007153,TRUE,4,1,"High",0.738628939943863,4.34549666377573,4.27818628475443,0.948179310650233,1.76360588445919,4.55664038098496,3.83534848552442,1.23356779724302,4.68979876638882,5.14657846953043,-2.46517386613849,0.211143717209227,0.278454096230531,-2.67472423684486,2.79303449652576,0,0.721291895460544,-2.96011272343764,-0.133158385403862,-0.589938088545471,1
"SMOG",FALSE,6,"6",764.5,3.83534848552442,3.75448037525012,0.0808681102742978,579.799999952316,TRUE,4,1,"High",0.738628939943863,4.34549666377573,4.27818628475443,0.948179310650233,1.76360588445919,4.55664038098496,3.83534848552442,1.23356779724302,4.68979876638882,5.14657846953043,3.09671954558055,-0.510148178251317,-0.442837799230013,2.88716917487418,2.07174260106522,-0.721291895460544,0,2.6017806882814,-0.854450280864406,-1.31122998400602,1
"AILS",FALSE,7,"6",691.399999976158,1.23356779724302,1.04156405794675,0.19200373929627,494.599999904633,TRUE,4,1,"High",0.738628939943863,4.34549666377573,4.27818628475443,0.948179310650233,1.76360588445919,4.55664038098496,3.83534848552442,1.23356779724302,4.68979876638882,5.14657846953043,0.494938857299153,-3.11192886653272,-3.04461848751141,0.285388486592783,-0.530038087216178,2.96011272343764,-2.6017806882814,0,2.82695433803378,2.37017463489217,1
"ICON",FALSE,8,"6",804.699999928474,4.68979876638882,4.73026017709666,-0.0404614107078372,552.200000047684,TRUE,4,1,"High",0.738628939943863,4.34549666377573,4.27818628475443,0.948179310650233,1.76360588445919,4.55664038098496,3.83534848552442,1.23356779724302,4.68979876638882,5.14657846953043,-2.33201548073463,0.344302102613089,0.411612481634394,-2.541565851441,2.92619288192963,0.133158385403862,0.854450280864406,-2.82695433803378,0,-0.456779703141609,1
"FUNK",FALSE,9,"6",1006.70000004768,5.14657846953043,5.1445477642992,0.00203070523123117,681.700000047684,TRUE,4,1,"High",0.738628939943863,4.34549666377573,4.27818628475443,0.948179310650233,1.76360588445919,4.55664038098496,3.83534848552442,1.23356779724302,4.68979876638882,5.14657846953043,-1.87523577759302,0.801081805754698,0.868392184776003,-2.08478614829939,-2.90021272210835,0.589938088545471,1.31122998400602,-2.37017463489217,0.456779703141609,0,1
"CALF",FALSE,0,"6",850.700000047684,6.12000929459328,0.430406578111626,-0.593582590697933,823,TRUE,5,1,"High",6.12000929459328,0.887169736801346,4.81636344056793,5.72922876989539,4.28151752999893,1.93684851355977,4.47037455327291,6.00461877676746,1.8708072091536,3.47581561395791,0,-1.05034574938765,1.30364585402535,0.390780524697893,1.83849176459435,-2.10002452614607,1.64963474132037,0.115390517825819,-2.03398322173991,2.64419368063537,1
"PLOW",FALSE,1,"6",1008.5,0.887169736801346,0.732484112600098,0.154685624201248,714.700000047684,TRUE,5,1,"High",6.12000929459328,0.887169736801346,4.81636344056793,5.72922876989539,4.28151752999893,1.93684851355977,4.47037455327291,6.00461877676746,1.8708072091536,3.47581561395791,1.05034574938765,0,2.353991603413,1.44112627408555,2.888837513982,-1.04967877675842,2.69998049070803,1.16573626721347,-0.983637472352258,-2.58864587715656,1
"LARD",FALSE,2,"6",895.299999952316,4.81636344056793,5.25402795029218,-0.437664509724248,645.399999976158,TRUE,5,1,"High",6.12000929459328,0.887169736801346,4.81636344056793,5.72922876989539,4.28151752999893,1.93684851355977,4.47037455327291,6.00461877676746,1.8708072091536,3.47581561395791,-1.30364585402535,-2.353991603413,0,-0.912865329327458,0.534845910568996,2.87951492700816,0.345988887295022,-1.18825533619953,2.94555623141432,1.34054782661002,1
"GALE",FALSE,3,"6",649.399999976158,5.72922876989539,5.85589960524255,-0.126670835347165,786.299999952316,TRUE,5,1,"High",6.12000929459328,0.887169736801346,4.81636344056793,5.72922876989539,4.28151752999893,1.93684851355977,4.47037455327291,6.00461877676746,1.8708072091536,3.47581561395791,-0.390780524697893,-1.44112627408555,0.912865329327458,0,1.44771123989645,-2.49080505084397,1.25885421662248,-0.275390006872073,-2.4247637464378,2.25341315593748,1
"HOOP",FALSE,4,"6",760.299999952316,4.28151752999893,4.3480929575347,-0.0665754275357715,715.199999928474,TRUE,5,1,"High",6.12000929459328,0.887169736801346,4.81636344056793,5.72922876989539,4.28151752999893,1.93684851355977,4.47037455327291,6.00461877676746,1.8708072091536,3.47581561395791,-1.83849176459435,-2.888837513982,-0.534845910568996,-1.44771123989645,0,2.34466901643917,-0.188857023273974,-1.72310124676853,2.41071032084533,0.805701916041025,1
"FADE",FALSE,5,"1",1095.60000002384,1.93684851355977,2.59735236444036,-0.660503850880598,1993.29999995232,TRUE,5,1,"Unrecognized",6.12000929459328,0.887169736801346,4.81636344056793,5.72922876989539,4.28151752999893,1.93684851355977,4.47037455327291,6.00461877676746,1.8708072091536,3.47581561395791,2.10002452614607,1.04967877675842,-2.87951492700816,2.49080505084397,-2.34466901643917,0,-2.53352603971314,2.21541504397189,0.0660413044061625,-1.53896710039814,1
"HYMN",FALSE,6,"6",828.100000023842,4.47037455327291,3.4681468653634,1.00222768790951,826.100000023842,TRUE,5,1,"High",6.12000929459328,0.887169736801346,4.81636344056793,5.72922876989539,4.28151752999893,1.93684851355977,4.47037455327291,6.00461877676746,1.8708072091536,3.47581561395791,-1.64963474132037,-2.69998049070803,-0.345988887295022,-1.25885421662248,0.188857023273974,2.53352603971314,0,-1.53424422349455,2.5995673441193,0.994558939314999,1
"HULL",FALSE,7,"6",806.399999976158,6.00461877676746,0.108580196748482,-0.387146727160608,1042.30000007153,TRUE,5,1,"High",6.12000929459328,0.887169736801346,4.81636344056793,5.72922876989539,4.28151752999893,1.93684851355977,4.47037455327291,6.00461877676746,1.8708072091536,3.47581561395791,-0.115390517825819,-1.16573626721347,1.18825533619953,0.275390006872073,1.72310124676853,-2.21541504397189,1.53424422349455,0,-2.14937373956573,2.52880316280955,1
"SOLE",FALSE,8,"6",672.200000047684,1.8708072091536,2.12227532694026,-0.251468117786655,575,TRUE,5,1,"High",6.12000929459328,0.887169736801346,4.81636344056793,5.72922876989539,4.28151752999893,1.93684851355977,4.47037455327291,6.00461877676746,1.8708072091536,3.47581561395791,2.03398322173991,0.983637472352258,-2.94555623141432,2.4247637464378,-2.41071032084533,-0.0660413044061625,-2.5995673441193,2.14937373956573,0,-1.6050084048043,1
"GOWN",FALSE,9,"6",649.5,3.47581561395791,3.53890289938135,-0.0630872854234377,672,TRUE,5,1,"High",6.12000929459328,0.887169736801346,4.81636344056793,5.72922876989539,4.28151752999893,1.93684851355977,4.47037455327291,6.00461877676746,1.8708072091536,3.47581561395791,-2.64419368063537,2.58864587715656,-1.34054782661002,-2.25341315593748,-0.805701916041025,1.53896710039814,-0.994558939314999,-2.52880316280955,1.6050084048043,0,1
"DIRK",FALSE,0,"6",941.399999976158,3.97027437430106,4.21048257657406,-0.240208202273002,1133,TRUE,6,1,"High",3.97027437430106,4.22219186349563,4.04567034187869,2.12067703438651,4.85740575383274,5.31417330850593,5.59032408148834,1.16571760000689,4.8564079326505,1.98625774175412,0,-0.251917489194571,-0.0753959675776321,1.84959733991455,-0.887131379531682,-1.34389893420487,-1.62004970718728,2.80455677429417,-0.886133558349442,1.98401663254694,1
"DODO",FALSE,1,"6",850.199999928474,4.22219186349563,3.94831762668495,0.273874236810683,1998.10000002384,TRUE,6,1,"High",3.97027437430106,4.22219186349563,4.04567034187869,2.12067703438651,4.85740575383274,5.31417330850593,5.59032408148834,1.16571760000689,4.8564079326505,1.98625774175412,0.251917489194571,0,0.176521521616939,2.10151482910912,-0.635213890337111,-1.0919814450103,-1.36813221799271,3.05647426348874,-0.634216069154871,2.23593412174151,1
"SUED",FALSE,2,"6",670,4.04567034187869,4.46283620261724,-0.417165860738544,695.700000047684,TRUE,6,1,"High",3.97027437430106,4.22219186349563,4.04567034187869,2.12067703438651,4.85740575383274,5.31417330850593,5.59032408148834,1.16571760000689,4.8564079326505,1.98625774175412,0.0753959675776321,-0.176521521616939,0,1.92499330749218,-0.81173541195405,-1.26850296662724,-1.54465373960965,2.8799527418718,-0.81073759077181,2.05941260012457,1
"WOOF",FALSE,3,"6",669.199999928474,2.12067703438651,2.18321475773725,-0.0625377233507414,913.5,TRUE,6,1,"High",3.97027437430106,4.22219186349563,4.04567034187869,2.12067703438651,4.85740575383274,5.31417330850593,5.59032408148834,1.16571760000689,4.8564079326505,1.98625774175412,-1.84959733991455,-2.10151482910912,-1.92499330749218,0,-2.73672871944623,3.08968903306017,2.81353826007775,0.954959434379622,-2.73573089826399,0.134419292632393,1
"VIBE",FALSE,4,"6",8113.29999995232,4.85740575383274,4.9749515674362,-0.117545813603455,699.700000047684,TRUE,6,1,"High",3.97027437430106,4.22219186349563,4.04567034187869,2.12067703438651,4.85740575383274,5.31417330850593,5.59032408148834,1.16571760000689,4.8564079326505,1.98625774175412,0.887131379531682,0.635213890337111,0.81173541195405,2.73672871944623,0,-0.456767554673186,-0.732918327655601,-2.59149715335373,0.000997821182240344,2.87114801207862,1
"LIMP",FALSE,5,"6",1029.60000002384,5.31417330850593,5.5237470522561,-0.209573743750172,1000.5,TRUE,6,1,"High",3.97027437430106,4.22219186349563,4.04567034187869,2.12067703438651,4.85740575383274,5.31417330850593,5.59032408148834,1.16571760000689,4.8564079326505,1.98625774175412,1.34389893420487,1.0919814450103,1.26850296662724,-3.08968903306017,0.456767554673186,0,-0.276150772982415,-2.13472959868055,0.457765375855426,-2.95526974042778,1
"SAGE",FALSE,6,"6",986.5,5.59032408148834,5.01313181205367,0.57719226943467,848.099999904633,TRUE,6,1,"High",3.97027437430106,4.22219186349563,4.04567034187869,2.12067703438651,4.85740575383274,5.31417330850593,5.59032408148834,1.16571760000689,4.8564079326505,1.98625774175412,1.62004970718728,1.36813221799271,1.54465373960965,-2.81353826007775,0.732918327655601,0.276150772982415,0,-1.85857882569813,0.733916148837841,-2.67911896744536,1
"PAIL",FALSE,7,"6",803.100000023842,1.16571760000689,1.01785835372067,0.147859246286221,882,TRUE,6,1,"High",3.97027437430106,4.22219186349563,4.04567034187869,2.12067703438651,4.85740575383274,5.31417330850593,5.59032408148834,1.16571760000689,4.8564079326505,1.98625774175412,-2.80455677429417,-3.05647426348874,-2.8799527418718,-0.954959434379622,2.59149715335373,2.13472959868055,1.85857882569813,0,2.59249497453597,-0.82054014174723,1
"SIGH",FALSE,8,"6",696.200000047684,4.8564079326505,4.71685722552814,0.139550707122366,645.399999976158,TRUE,6,1,"High",3.97027437430106,4.22219186349563,4.04567034187869,2.12067703438651,4.85740575383274,5.31417330850593,5.59032408148834,1.16571760000689,4.8564079326505,1.98625774175412,0.886133558349442,0.634216069154871,0.81073759077181,2.73573089826399,-0.000997821182240344,-0.457765375855426,-0.733916148837841,-2.59249497453597,0,2.87015019089638,1
"SWAM",FALSE,9,"6",782.099999904633,1.98625774175412,6.01069658153963,2.25874646739408,1911.89999997616,TRUE,6,1,"High",3.97027437430106,4.22219186349563,4.04567034187869,2.12067703438651,4.85740575383274,5.31417330850593,5.59032408148834,1.16571760000689,4.8564079326505,1.98625774175412,-1.98401663254694,-2.23593412174151,-2.05941260012457,-0.134419292632393,-2.87114801207862,2.95526974042778,2.67911896744536,0.82054014174723,-2.87015019089638,0,1
"RUNT",FALSE,0,"6",826.299999952316,2.88010426389869,2.25406858232935,0.626035681569338,1614.79999995232,TRUE,7,1,"High",2.88010426389869,2.34700594294687,1.278513156094,3.05653843041603,0.286877074331766,0.252994095957438,4.72775032642744,5.04031259998042,3.04805627147744,4.51891429754453,0,0.533098320951823,1.60159110780469,-0.176434166517343,2.59322718956692,2.62711016794125,-1.84764606252875,-2.16020833608173,-0.16795200757875,-1.63881003364584,1
"FLAW",FALSE,1,"6",849.899999976158,2.34700594294687,0.808092822765511,1.53891312018136,3946.70000004768,TRUE,7,1,"High",2.88010426389869,2.34700594294687,1.278513156094,3.05653843041603,0.286877074331766,0.252994095957438,4.72775032642744,5.04031259998042,3.04805627147744,4.51891429754453,-0.533098320951823,0,1.06849278685287,-0.709532487469166,2.0601288686151,2.09401184698943,-2.38074438348057,-2.69330665703356,-0.701050328530572,-2.17190835459766,1
"BUYS",FALSE,2,"6",895.699999928474,1.278513156094,1.00075581865556,0.277757337438436,1002.79999995232,TRUE,7,1,"High",2.88010426389869,2.34700594294687,1.278513156094,3.05653843041603,0.286877074331766,0.252994095957438,4.72775032642744,5.04031259998042,3.04805627147744,4.51891429754453,-1.60159110780469,-1.06849278685287,0,-1.77802527432204,0.99163608176223,1.02551906013656,2.83394813684614,2.52138586329316,-1.76954311538344,3.04278416572905,1
"LEAF",FALSE,3,"6",715,3.05653843041603,3.28386814692409,-0.22732971650806,940,TRUE,7,1,"High",2.88010426389869,2.34700594294687,1.278513156094,3.05653843041603,0.286877074331766,0.252994095957438,4.72775032642744,5.04031259998042,3.04805627147744,4.51891429754453,0.176434166517343,0.709532487469166,1.77802527432204,0,2.76966135608427,2.80354433445859,-1.67121189601141,-1.98377416956439,0.00848215893859328,-1.4623758671285,1
"TACK",FALSE,4,"6",2016.5,0.286877074331766,0.60299427615145,-0.316117201819684,728.200000047684,TRUE,7,1,"High",2.88010426389869,2.34700594294687,1.278513156094,3.05653843041603,0.286877074331766,0.252994095957438,4.72775032642744,5.04031259998042,3.04805627147744,4.51891429754453,-2.59322718956692,-2.0601288686151,-0.99163608176223,-2.76966135608427,0,0.0338829783743278,1.84231205508391,1.52974978153093,-2.76117919714567,2.05114808396682,1
"HELM",FALSE,5,"6",647.399999976158,0.252994095957438,0.454451473224351,-0.201457377266912,830.699999928474,TRUE,7,1,"High",2.88010426389869,2.34700594294687,1.278513156094,3.05653843041603,0.286877074331766,0.252994095957438,4.72775032642744,5.04031259998042,3.04805627147744,4.51891429754453,-2.62711016794125,-2.09401184698943,-1.02551906013656,-2.80354433445859,-0.0338829783743278,0,1.80842907670959,1.4958668031566,-2.79506217552,2.0172651055925,1
"FEAT",FALSE,6,"6",714.399999976158,4.72775032642744,4.67219616378726,0.0555541626401812,1215.90000009537,TRUE,7,1,"High",2.88010426389869,2.34700594294687,1.278513156094,3.05653843041603,0.286877074331766,0.252994095957438,4.72775032642744,5.04031259998042,3.04805627147744,4.51891429754453,1.84764606252875,2.38074438348057,-2.83394813684614,1.67121189601141,-1.84231205508391,-1.80842907670959,0,-0.312562273552984,1.67969405495,0.208836028882908,1
"CHUM",FALSE,7,"6",738,5.04031259998042,5.07827842907337,-0.0379658290929505,1197.59999990463,TRUE,7,1,"High",2.88010426389869,2.34700594294687,1.278513156094,3.05653843041603,0.286877074331766,0.252994095957438,4.72775032642744,5.04031259998042,3.04805627147744,4.51891429754453,2.16020833608173,2.69330665703356,-2.52138586329316,1.98377416956439,-1.52974978153093,-1.4958668031566,0.312562273552984,0,1.99225632850298,0.521398302435893,1
"LOGO",FALSE,8,"6",894.400000095367,3.04805627147744,2.76108635236663,0.286969919110807,898.799999952316,TRUE,7,1,"High",2.88010426389869,2.34700594294687,1.278513156094,3.05653843041603,0.286877074331766,0.252994095957438,4.72775032642744,5.04031259998042,3.04805627147744,4.51891429754453,0.16795200757875,0.701050328530572,1.76954311538344,-0.00848215893859328,2.76117919714567,2.79506217552,-1.67969405495,-1.99225632850298,0,-1.47085802606709,1
"BEAD",FALSE,9,"6",968.099999904633,4.51891429754453,4.30831853313019,0.210595764414335,948.399999976158,TRUE,7,1,"High",2.88010426389869,2.34700594294687,1.278513156094,3.05653843041603,0.286877074331766,0.252994095957438,4.72775032642744,5.04031259998042,3.04805627147744,4.51891429754453,1.63881003364584,2.17190835459766,-3.04278416572905,1.4623758671285,-2.05114808396682,-2.0172651055925,-0.208836028882908,-0.521398302435893,1.47085802606709,0,1
"JOLT",FALSE,0,"6",784.300000071526,4.00935345438373,4.17840128601836,-0.169047831634634,879.700000047684,TRUE,8,1,"High",4.00935345438373,5.49338651235222,2.32287095481162,0.85998920362752,5.63810189005279,5.18798975085273,1.71543577226572,0.289461436515551,0.0116062020133069,1.65198516999534,0,-1.4840330579685,1.68648249957211,-3.13382105642338,-1.62874843566906,-1.178636296469,2.29391768211801,-2.56329328931141,-2.28543805480917,2.35736828438839,1
"SUNG",FALSE,1,"6",2255.10000002384,5.49338651235222,5.24865780921734,0.244728703134882,645.199999928474,TRUE,8,1,"High",4.00935345438373,5.49338651235222,2.32287095481162,0.85998920362752,5.63810189005279,5.18798975085273,1.71543577226572,0.289461436515551,0.0116062020133069,1.65198516999534,1.4840330579685,0,-3.11266974963898,-1.64978799845488,-0.144715377700563,0.305396761499496,-2.50523456709308,-1.07926023134292,-0.801404996840671,-2.4417839648227,1
"HYPE",FALSE,2,"6",11059,2.32287095481162,2.61888275440443,-0.296011799592809,1231.5,TRUE,8,1,"High",4.00935345438373,5.49338651235222,2.32287095481162,0.85998920362752,5.63810189005279,5.18798975085273,1.71543577226572,0.289461436515551,0.0116062020133069,1.65198516999534,-1.68648249957211,3.11266974963898,0,1.4628817511841,2.96795437193842,-2.86511879604111,0.607435182545899,2.03340951829607,2.31126475279831,0.67088578481628,1
"DIVA",FALSE,3,"6",1799.80000007153,0.85998920362752,0.977083709666077,-0.117094506038557,697.700000047684,TRUE,8,1,"High",4.00935345438373,5.49338651235222,2.32287095481162,0.85998920362752,5.63810189005279,5.18798975085273,1.71543577226572,0.289461436515551,0.0116062020133069,1.65198516999534,3.13382105642338,1.64978799845488,-1.4628817511841,0,1.50507262075432,1.95518475995438,-0.855446568638199,0.570527767111969,0.848383001614213,-0.791995966367817,1
"MUTT",FALSE,4,"6",3363.89999997616,5.63810189005279,2.1184520791985,-2.7635354963253,830,TRUE,8,1,"High",4.00935345438373,5.49338651235222,2.32287095481162,0.85998920362752,5.63810189005279,5.18798975085273,1.71543577226572,0.289461436515551,0.0116062020133069,1.65198516999534,1.62874843566906,0.144715377700563,-2.96795437193842,-1.50507262075432,0,0.450112139200059,-2.36051918939252,-0.934544853642352,-0.656689619140108,-2.29706858712214,1
"GENT",FALSE,5,"6",695.399999976158,5.18798975085273,5.10407084082004,0.0839189100326827,778.399999976158,TRUE,8,1,"High",4.00935345438373,5.49338651235222,2.32287095481162,0.85998920362752,5.63810189005279,5.18798975085273,1.71543577226572,0.289461436515551,0.0116062020133069,1.65198516999534,1.178636296469,-0.305396761499496,2.86511879604111,-1.95518475995438,-0.450112139200059,0,-2.81063132859258,-1.38465699284241,-1.10680175834017,-2.7471807263222,1
"PLUM",FALSE,6,"6",810.899999976158,1.71543577226572,1.58871555702427,0.126720215241447,1198.60000002384,TRUE,8,1,"High",4.00935345438373,5.49338651235222,2.32287095481162,0.85998920362752,5.63810189005279,5.18798975085273,1.71543577226572,0.289461436515551,0.0116062020133069,1.65198516999534,-2.29391768211801,2.50523456709308,-0.607435182545899,0.855446568638199,2.36051918939252,2.81063132859258,0,1.42597433575017,1.70382957025241,0.0634506022703816,1
"HERD",FALSE,7,"6",604.300000071526,0.289461436515551,0.655859361427862,-0.366397924912311,1004.69999992847,TRUE,8,1,"High",4.00935345438373,5.49338651235222,2.32287095481162,0.85998920362752,5.63810189005279,5.18798975085273,1.71543577226572,0.289461436515551,0.0116062020133069,1.65198516999534,2.56329328931141,1.07926023134292,-2.03340951829607,-0.570527767111969,0.934544853642352,1.38465699284241,-1.42597433575017,0,0.277855234502244,-1.36252373347979,1
"BABA",FALSE,8,"6",829.399999976158,0.0116062020133069,0.0548996505693364,-0.0432934485560295,1067.29999995232,TRUE,8,1,"High",4.00935345438373,5.49338651235222,2.32287095481162,0.85998920362752,5.63810189005279,5.18798975085273,1.71543577226572,0.289461436515551,0.0116062020133069,1.65198516999534,2.28543805480917,0.801404996840671,-2.31126475279831,-0.848383001614213,0.656689619140108,1.10680175834017,-1.70382957025241,-0.277855234502244,0,-1.64037896798203,1
"PLOY",FALSE,9,"6",962.200000047684,1.65198516999534,0.911854435952216,0.740130734043122,732.699999928474,TRUE,8,1,"High",4.00935345438373,5.49338651235222,2.32287095481162,0.85998920362752,5.63810189005279,5.18798975085273,1.71543577226572,0.289461436515551,0.0116062020133069,1.65198516999534,-2.35736828438839,2.4417839648227,-0.67088578481628,0.791995966367817,2.29706858712214,2.7471807263222,-0.0634506022703816,1.36252373347979,1.64037896798203,0,1
"SLOP",FALSE,0,"6",781.899999976158,2.24769613111633,1.30201781237346,0.945678318742876,1213.60000002384,TRUE,9,1,"High",2.24769613111633,3.76488657842913,1.94079021151029,4.73132786723093,5.1699199961805,3.43530098891832,0.807194828483982,5.60161720200712,3.87099254073339,1.18210168971372,0,-1.5171904473128,0.306905919606043,-2.4836317361146,-2.92222386506416,-1.18760485780198,1.44050130263235,2.92926423628881,-1.62329640961706,1.06559444140261,1
"ALPS",FALSE,1,"6",3031.39999997616,3.76488657842913,3.88837803293421,-0.12349145450508,639.099999904633,TRUE,9,1,"High",2.24769613111633,3.76488657842913,1.94079021151029,4.73132786723093,5.1699199961805,3.43530098891832,0.807194828483982,5.60161720200712,3.87099254073339,1.18210168971372,1.5171904473128,0,1.82409636691884,-0.966441288801795,-1.40503341775136,0.329585589510819,2.95769174994515,-1.83673062357798,-0.10610596230426,2.58278488871542,1
"RAFT",FALSE,2,"6",715.399999976158,1.94079021151029,2.15082506020263,-0.210034848692335,607.099999904633,TRUE,9,1,"High",2.24769613111633,3.76488657842913,1.94079021151029,4.73132786723093,5.1699199961805,3.43530098891832,0.807194828483982,5.60161720200712,3.87099254073339,1.18210168971372,-0.306905919606043,-1.82409636691884,0,-2.79053765572064,3.05405552250938,-1.49451077740803,1.13359538302631,2.62235831668276,-1.9302023292231,0.758688521796572,1
"VIAL",FALSE,3,"6",692.699999928474,4.73132786723093,4.71238898038469,0.0189388868462403,911.399999976158,TRUE,9,1,"High",2.24769613111633,3.76488657842913,1.94079021151029,4.73132786723093,5.1699199961805,3.43530098891832,0.807194828483982,5.60161720200712,3.87099254073339,1.18210168971372,2.4836317361146,0.966441288801795,2.79053765572064,0,-0.438592128949568,1.29602687831261,-2.35905226843264,-0.870289334776185,0.860335326497536,-2.73395912966238,1
"CLAP",FALSE,4,"6",602,5.1699199961805,5.34927235852179,-0.179352362341295,872.5,TRUE,9,1,"High",2.24769613111633,3.76488657842913,1.94079021151029,4.73132786723093,5.1699199961805,3.43530098891832,0.807194828483982,5.60161720200712,3.87099254073339,1.18210168971372,2.92222386506416,1.40503341775136,-3.05405552250938,0.438592128949568,0,1.73461900726218,-1.92046013948307,-0.431697205826617,1.2989274554471,-2.29536700071281,1
"DELI",FALSE,5,"6",647.299999952316,3.43530098891832,3.18085825742515,0.254442731493167,659.100000023842,TRUE,9,1,"High",2.24769613111633,3.76488657842913,1.94079021151029,4.73132786723093,5.1699199961805,3.43530098891832,0.807194828483982,5.60161720200712,3.87099254073339,1.18210168971372,1.18760485780198,-0.329585589510819,1.49451077740803,-1.29602687831261,-1.73461900726218,0,2.62810616043433,-2.1663162130888,-0.435691551815078,2.2531992992046,1
"WUSS",FALSE,6,"6",647.5,0.807194828483982,0.993220311569441,-0.186025483085459,1014.89999997616,TRUE,9,1,"High",2.24769613111633,3.76488657842913,1.94079021151029,4.73132786723093,5.1699199961805,3.43530098891832,0.807194828483982,5.60161720200712,3.87099254073339,1.18210168971372,-1.44050130263235,-2.95769174994515,-1.13359538302631,2.35905226843264,1.92046013948307,-2.62810616043433,0,1.48876293365645,-3.06379771224941,-0.374906861229736,1
"CRIB",FALSE,7,"6",626.200000047684,5.60161720200712,5.50470956801618,0.0969076339909369,485.399999976158,TRUE,9,1,"High",2.24769613111633,3.76488657842913,1.94079021151029,4.73132786723093,5.1699199961805,3.43530098891832,0.807194828483982,5.60161720200712,3.87099254073339,1.18210168971372,-2.92926423628881,1.83673062357798,-2.62235831668276,0.870289334776185,0.431697205826617,2.1663162130888,-1.48876293365645,0,1.73062466127372,-1.86366979488619,1
"SLAY",FALSE,8,"1",1551.80000007153,3.87099254073339,5.12963991274822,-1.25864737201483,1484.20000004768,TRUE,9,1,"Unrecognized",2.24769613111633,3.76488657842913,1.94079021151029,4.73132786723093,5.1699199961805,3.43530098891832,0.807194828483982,5.60161720200712,3.87099254073339,1.18210168971372,1.62329640961706,0.10610596230426,1.9302023292231,-0.860335326497536,-1.2989274554471,0.435691551815078,3.06379771224941,-1.73062466127372,0,2.68889085101968,1
"FEND",FALSE,9,"6",850.299999952316,1.18210168971372,6.21459733120984,1.25068966568346,701.700000047684,TRUE,9,1,"High",2.24769613111633,3.76488657842913,1.94079021151029,4.73132786723093,5.1699199961805,3.43530098891832,0.807194828483982,5.60161720200712,3.87099254073339,1.18210168971372,-1.06559444140261,-2.58278488871542,-0.758688521796572,2.73395912966238,2.29536700071281,-2.2531992992046,0.374906861229736,1.86366979488619,-2.68889085101968,0,1
"POOF",FALSE,0,"6",1204.5,4.21135027618595,4.37626109572961,-0.164910819543661,697.300000071526,TRUE,10,1,"High",4.21135027618595,4.09229914676883,2.25195296019985,0.589601317310028,4.09052897031745,4.47875579270756,5.44448490733415,0.651452310709615,3.62232660147917,2.49126563631396,0,0.119051129417125,1.95939731598611,-2.66143634830366,0.120821305868498,-0.267405516521609,-1.23313463114819,-2.72328734170325,0.589023674706785,1.72008463987199,1
"FERN",FALSE,1,"6",940.700000047684,4.09229914676883,4.729793661742,-0.637494514973171,424.299999952316,TRUE,10,1,"High",4.21135027618595,4.09229914676883,2.25195296019985,0.589601317310028,4.09052897031745,4.47875579270756,5.44448490733415,0.651452310709615,3.62232660147917,2.49126563631396,-0.119051129417125,0,1.84034618656898,-2.78048747772079,0.00177017645137312,-0.386456645938734,-1.35218576056532,-2.84233847112037,0.46997254528966,1.60103351045487,1
"BUOY",FALSE,2,"6",714.799999952316,2.25195296019985,2.27891873980618,-0.0269657796063347,844,TRUE,10,1,"High",4.21135027618595,4.09229914676883,2.25195296019985,0.589601317310028,4.09052897031745,4.47875579270756,5.44448490733415,0.651452310709615,3.62232660147917,2.49126563631396,-1.95939731598611,-1.84034618656898,0,1.66235164288982,-1.83857601011761,-2.22680283250771,3.09065336004529,1.60050064949023,-1.37037364127932,-0.239312676114112,1
"WACK",FALSE,3,"6",624.900000095367,0.589601317310028,5.25864554534066,1.61414107914896,711.199999928474,TRUE,10,1,"High",4.21135027618595,4.09229914676883,2.25195296019985,0.589601317310028,4.09052897031745,4.47875579270756,5.44448490733415,0.651452310709615,3.62232660147917,2.49126563631396,2.66143634830366,2.78048747772079,-1.66235164288982,0,2.78225765417216,2.39403083178205,1.42830171715547,-0.0618509933995876,-3.03272528416914,-1.90166431900393,1
"NUDE",FALSE,4,"6",1097.89999997616,4.09052897031745,0.884061486685516,-3.07671782354765,1647.39999997616,TRUE,10,1,"High",4.21135027618595,4.09229914676883,2.25195296019985,0.589601317310028,4.09052897031745,4.47875579270756,5.44448490733415,0.651452310709615,3.62232660147917,2.49126563631396,-0.120821305868498,-0.00177017645137312,1.83857601011761,-2.78225765417216,0,-0.388226822390107,-1.35395593701669,-2.84410864757175,0.468202368838287,1.5992633340035,1
"STUB",FALSE,5,"6",827.5,4.47875579270756,2.37430624666928,2.10444954603828,1464.70000004768,TRUE,10,1,"High",4.21135027618595,4.09229914676883,2.25195296019985,0.589601317310028,4.09052897031745,4.47875579270756,5.44448490733415,0.651452310709615,3.62232660147917,2.49126563631396,0.267405516521609,0.386456645938734,2.22680283250771,-2.39403083178205,0.388226822390107,0,-0.965729114626585,-2.45588182518164,0.856429191228393,1.9874901563936,1
"EONS",FALSE,6,"6",1681.60000002384,5.44448490733415,5.43222462485623,0.0122602824779134,880.100000023842,TRUE,10,1,"High",4.21135027618595,4.09229914676883,2.25195296019985,0.589601317310028,4.09052897031745,4.47875579270756,5.44448490733415,0.651452310709615,3.62232660147917,2.49126563631396,1.23313463114819,1.35218576056532,-3.09065336004529,-1.42830171715547,1.35395593701669,0.965729114626585,0,-1.49015271055506,1.82215830585498,2.95321927102019,1
"HEEL",FALSE,7,"6",625.399999976158,0.651452310709615,0.941870885867759,-0.290418575158144,580.399999976158,TRUE,10,1,"High",4.21135027618595,4.09229914676883,2.25195296019985,0.589601317310028,4.09052897031745,4.47875579270756,5.44448490733415,0.651452310709615,3.62232660147917,2.49126563631396,2.72328734170325,2.84233847112037,-1.60050064949023,0.0618509933995876,2.84410864757175,2.45588182518164,1.49015271055506,0,-2.97087429076955,-1.83981332560434,1
"COMB",FALSE,8,"6",692,3.62232660147917,3.60840362998094,0.0139229714982263,581,TRUE,10,1,"High",4.21135027618595,4.09229914676883,2.25195296019985,0.589601317310028,4.09052897031745,4.47875579270756,5.44448490733415,0.651452310709615,3.62232660147917,2.49126563631396,-0.589023674706785,-0.46997254528966,1.37037364127932,3.03272528416914,-0.468202368838287,-0.856429191228393,-1.82215830585498,2.97087429076955,0,1.13106096516521,1
"FLAN",FALSE,9,"6",1991.89999997616,2.49126563631396,3.33288974545153,-0.841624109137571,875.5,TRUE,10,1,"High",4.21135027618595,4.09229914676883,2.25195296019985,0.589601317310028,4.09052897031745,4.47875579270756,5.44448490733415,0.651452310709615,3.62232660147917,2.49126563631396,-1.72008463987199,-1.60103351045487,0.239312676114112,1.90166431900393,-1.5992633340035,-1.9874901563936,-2.95321927102019,1.83981332560434,-1.13106096516521,0,1
"BRIG",FALSE,0,"6",1326.79999995232,1.83528048373857,1.02397443266538,0.811306051073193,772.399999976158,TRUE,11,1,"High",1.83528048373857,0.846593399511853,4.6644804224766,0.229887830740833,3.43304318835091,2.41690573379495,4.61113974856313,6.12208671080007,0.0285893153205861,1.9442597662318,0,0.988687084226718,-2.82919993873803,1.60539265299774,-1.59776270461234,-0.581625250056381,-2.77585926482456,1.99637908011809,1.80669116841799,-0.108979282493229,1
"ALAS",FALSE,1,"6",1074.90000009537,0.846593399511853,5.05841480530356,2.07136390138788,573.700000047684,TRUE,11,1,"High",1.83528048373857,0.846593399511853,4.6644804224766,0.229887830740833,3.43304318835091,2.41690573379495,4.61113974856313,6.12208671080007,0.0285893153205861,1.9442597662318,-0.988687084226718,0,2.46529828421484,0.61670556877102,-2.58644978883905,-1.5703123342831,2.51863895812831,1.00769199589137,0.818004084191267,-1.09766636671995,1
"BUMS",FALSE,2,"6",969.699999928474,4.6644804224766,4.64991453956839,0.0145658829082098,618.100000023842,TRUE,11,1,"High",1.83528048373857,0.846593399511853,4.6644804224766,0.229887830740833,3.43304318835091,2.41690573379495,4.61113974856313,6.12208671080007,0.0285893153205861,1.9442597662318,2.82919993873803,-2.46529828421484,0,-1.84859271544382,1.2314372341257,2.24757468868165,0.0533406739134756,-1.45760628832346,-1.64729420002357,2.7202206562448,1
"MULE",FALSE,3,"6",715,0.229887830740833,2.94161141729698,-2.71172358655615,876.100000023842,TRUE,11,1,"High",1.83528048373857,0.846593399511853,4.6644804224766,0.229887830740833,3.43304318835091,2.41690573379495,4.61113974856313,6.12208671080007,0.0285893153205861,1.9442597662318,-1.60539265299774,-0.61670556877102,1.84859271544382,0,3.08002994956951,-2.18701790305412,1.90193338935729,0.390986427120353,0.201298515420247,-1.71437193549097,1
"BILE",FALSE,4,"6",783.200000047684,3.43304318835091,3.58443501572285,-0.151391827371943,880.699999928474,TRUE,11,1,"High",1.83528048373857,0.846593399511853,4.6644804224766,0.229887830740833,3.43304318835091,2.41690573379495,4.61113974856313,6.12208671080007,0.0285893153205861,1.9442597662318,1.59776270461234,2.58644978883905,-1.2314372341257,-3.08002994956951,0,1.01613745455596,-1.17809656021222,-2.68904352244916,-2.87873143414926,1.48878342211911,1
"KEEL",FALSE,5,"6",600.5,2.41690573379495,0.93497496131263,1.48193077248232,1029,TRUE,11,1,"High",1.83528048373857,0.846593399511853,4.6644804224766,0.229887830740833,3.43304318835091,2.41690573379495,4.61113974856313,6.12208671080007,0.0285893153205861,1.9442597662318,0.581625250056381,1.5703123342831,-2.24757468868165,2.18701790305412,-1.01613745455596,0,-2.19423401476818,2.57800433017447,2.38831641847437,0.472645967563152,1
"DOSE",FALSE,6,"6",825.5,4.61113974856313,0.861304783793864,-2.53335034241032,931.300000071526,TRUE,11,1,"High",1.83528048373857,0.846593399511853,4.6644804224766,0.229887830740833,3.43304318835091,2.41690573379495,4.61113974856313,6.12208671080007,0.0285893153205861,1.9442597662318,2.77585926482456,-2.51863895812831,-0.0533406739134756,-1.90193338935729,1.17809656021222,2.19423401476818,0,-1.51094696223694,-1.70063487393704,2.66687998233133,1
"SNIP",FALSE,7,"6",872.799999952316,6.12208671080007,6.03472377483305,0.0873629359670201,763.100000023842,TRUE,11,1,"High",1.83528048373857,0.846593399511853,4.6644804224766,0.229887830740833,3.43304318835091,2.41690573379495,4.61113974856313,6.12208671080007,0.0285893153205861,1.9442597662318,-1.99637908011809,-1.00769199589137,1.45760628832346,-0.390986427120353,2.68904352244916,-2.57800433017447,1.51094696223694,0,-0.189687911700106,-2.10535836261132,1
"TOUT",FALSE,8,"6",694.299999952316,0.0285893153205861,1.68333866262297,-1.65474934730238,1524.60000002384,TRUE,11,1,"High",1.83528048373857,0.846593399511853,4.6644804224766,0.229887830740833,3.43304318835091,2.41690573379495,4.61113974856313,6.12208671080007,0.0285893153205861,1.9442597662318,-1.80669116841799,-0.818004084191267,1.64729420002357,-0.201298515420247,2.87873143414926,-2.38831641847437,1.70063487393704,0.189687911700106,0,-1.91567045091121,1
"CLAN",FALSE,9,"6",557.300000071526,1.9442597662318,2.24912598623515,-0.30486622000335,800.900000095367,TRUE,11,1,"High",1.83528048373857,0.846593399511853,4.6644804224766,0.229887830740833,3.43304318835091,2.41690573379495,4.61113974856313,6.12208671080007,0.0285893153205861,1.9442597662318,0.108979282493229,1.09766636671995,-2.7202206562448,1.71437193549097,-1.48878342211911,-0.472645967563152,-2.66687998233133,2.10535836261132,1.91567045091121,0,1
"NEWT",FALSE,0,"6",220.899999976158,5.98798822054926,5.80840045697776,0.1795877635715,978.5,TRUE,-1,2,"High",5.98798822054926,0.280309072109147,4.19837308560105,1.56649445734572,1.16621843031784,NA,NA,NA,NA,NA,0,-0.575506158739471,1.78961513494821,-1.86169154397604,-1.46141551694817,NA,NA,NA,NA,NA,1
"FLEX",FALSE,1,"1",151.700000047684,0.280309072109147,4.80276464908616,1.76072973020257,464,TRUE,-1,2,"Unrecognized",5.98798822054926,0.280309072109147,4.19837308560105,1.56649445734572,1.16621843031784,NA,NA,NA,NA,NA,0.575506158739471,0,2.36512129368768,-1.28618538523657,-0.885909358208698,NA,NA,NA,NA,NA,1
"RUSE",FALSE,2,"1",264.399999976158,4.19837308560105,2.7673148566125,1.43105822898855,464.399999976158,TRUE,-1,2,"Unrecognized",5.98798822054926,0.280309072109147,4.19837308560105,1.56649445734572,1.16621843031784,NA,NA,NA,NA,NA,-1.78961513494821,-2.36512129368768,0,2.63187862825534,3.03215465528321,NA,NA,NA,NA,NA,1
"AQUA",FALSE,3,"6",386.600000023842,1.56649445734572,4.35068241384237,-2.78418795649665,659.5,TRUE,-1,2,"High",5.98798822054926,0.280309072109147,4.19837308560105,1.56649445734572,1.16621843031784,NA,NA,NA,NA,NA,1.86169154397604,1.28618538523657,-2.63187862825534,0,0.400276027027872,NA,NA,NA,NA,NA,1
"GONG",FALSE,4,"1",84.8999999761581,1.16621843031784,0.366404033422624,0.79981439689522,860,TRUE,-1,2,"Unrecognized",5.98798822054926,0.280309072109147,4.19837308560105,1.56649445734572,1.16621843031784,NA,NA,NA,NA,NA,1.46141551694817,0.885909358208698,-3.03215465528321,-0.400276027027872,0,NA,NA,NA,NA,NA,1
"ICKY",FALSE,0,"6",861.799999952316,5.83936507475709,5.84439216786919,-0.00502709311210836,965.899999976158,TRUE,0,2,"High",5.83936507475709,0.0613865648603182,3.16575018136846,0.794890143792981,6.10773651280063,2.07737591557941,4.09506061420961,4.72921048680315,0.517396777468795,1.38506775211701,0,-0.505206797282819,2.67361489338863,-1.23871037621548,-0.268371438043542,-2.52119614800191,1.74430446054748,1.11015458795393,-0.961217009891296,-1.82888798453951,1
"PODS",FALSE,1,"6",1030.5,0.0613865648603182,0.0544104463284302,0.00697611853188802,1077,TRUE,0,2,"High",5.83936507475709,0.0613865648603182,3.16575018136846,0.794890143792981,6.10773651280063,2.07737591557941,4.09506061420961,4.72921048680315,0.517396777468795,1.38506775211701,0.505206797282819,0,-3.10436361650814,-0.733503578932663,0.236835359239277,-2.01598935071909,2.2495112578303,1.61536138523675,-0.456010212608477,-1.32368118725669,1
"BOWS",FALSE,2,"6",635.899999976158,3.16575018136846,3.21645258258684,-0.0507024012183801,984.299999952316,TRUE,0,2,"High",5.83936507475709,0.0613865648603182,3.16575018136846,0.794890143792981,6.10773651280063,2.07737591557941,4.09506061420961,4.72921048680315,0.517396777468795,1.38506775211701,-2.67361489338863,3.10436361650814,0,2.37086003757548,-2.94198633143217,1.08837426578905,-0.92931043284115,-1.56346030543469,2.64835340389966,1.78068242925145,1
"RELY",FALSE,3,"5",1841.10000002384,0.794890143792981,4.14784393032376,2.93023152064881,4597,TRUE,0,2,"Low",5.83936507475709,0.0613865648603182,3.16575018136846,0.794890143792981,6.10773651280063,2.07737591557941,4.09506061420961,4.72921048680315,0.517396777468795,1.38506775211701,1.23871037621548,0.733503578932663,-2.37086003757548,0,0.97033893817194,-1.28248577178642,2.98301483676296,2.34886496416942,0.277493366324186,-0.590177608324029,1
"MUGS",FALSE,4,"6",1076.40000009537,6.10773651280063,0.880618450489607,-1.05606724486857,632.799999952316,TRUE,0,2,"High",5.83936507475709,0.0613865648603182,3.16575018136846,0.794890143792981,6.10773651280063,2.07737591557941,4.09506061420961,4.72921048680315,0.517396777468795,1.38506775211701,0.268371438043542,-0.236835359239277,2.94198633143217,-0.97033893817194,0,-2.25282470995836,2.01267589859102,1.37852602599748,-0.692845571847754,-1.56051654649597,1
"DOME",FALSE,5,"5",2120.89999997616,2.07737591557941,3.17640010000516,-1.09902418442576,877.399999976158,TRUE,0,2,"Low",5.83936507475709,0.0613865648603182,3.16575018136846,0.794890143792981,6.10773651280063,2.07737591557941,4.09506061420961,4.72921048680315,0.517396777468795,1.38506775211701,2.52119614800191,2.01598935071909,-1.08837426578905,1.28248577178642,2.25282470995836,0,-2.0176846986302,-2.65183457122375,1.55997913811061,0.692308163462396,1
"PIPS",FALSE,6,"6",889.299999952316,4.09506061420961,4.01822355983033,0.0768370543792782,1672.29999995232,TRUE,0,2,"High",5.83936507475709,0.0613865648603182,3.16575018136846,0.794890143792981,6.10773651280063,2.07737591557941,4.09506061420961,4.72921048680315,0.517396777468795,1.38506775211701,-1.74430446054748,-2.2495112578303,0.92931043284115,-2.98301483676296,-2.01267589859102,2.0176846986302,0,-0.634149872593545,-2.70552147043878,2.7099928620926,1
"POLL",FALSE,7,"6",850.100000023842,4.72921048680315,4.80512487117895,-0.075914384375797,611.399999976158,TRUE,0,2,"High",5.83936507475709,0.0613865648603182,3.16575018136846,0.794890143792981,6.10773651280063,2.07737591557941,4.09506061420961,4.72921048680315,0.517396777468795,1.38506775211701,-1.11015458795393,-1.61536138523675,1.56346030543469,-2.34886496416942,-1.37852602599748,2.65183457122375,0.634149872593545,0,-2.07137159784523,-2.93904257249344,1
"NOVA",FALSE,8,"6",1061.80000007153,0.517396777468795,0.651277487196457,-0.133880709727662,760.399999976158,TRUE,0,2,"High",5.83936507475709,0.0613865648603182,3.16575018136846,0.794890143792981,6.10773651280063,2.07737591557941,4.09506061420961,4.72921048680315,0.517396777468795,1.38506775211701,0.961217009891296,0.456010212608477,-2.64835340389966,-0.277493366324186,0.692845571847754,-1.55997913811061,2.70552147043878,2.07137159784523,0,-0.867670974648215,1
"CULT",FALSE,9,"6",1940.89999997616,1.38506775211701,3.61841848605104,-2.23335073393403,1606.20000004768,TRUE,0,2,"High",5.83936507475709,0.0613865648603182,3.16575018136846,0.794890143792981,6.10773651280063,2.07737591557941,4.09506061420961,4.72921048680315,0.517396777468795,1.38506775211701,1.82888798453951,1.32368118725669,-1.78068242925145,0.590177608324029,1.56051654649597,-0.692308163462396,-2.7099928620926,2.93904257249344,0.867670974648215,0,1
"RODS",FALSE,0,"6",781.5,1.97762218199533,0.735471253761723,1.2421509282336,1250.39999997616,TRUE,1,2,"High",1.97762218199533,2.59839642787993,3.37088509691314,3.05105753622189,3.74855852728259,4.35592935271267,5.56830067035287,4.70027811403289,2.17394290889908,4.77737579732379,0,-0.620774245884599,-1.39326291491782,-1.07343535422656,-1.77093634528727,-2.37830717071735,2.69250681882204,-2.72265593203756,-0.196320726903758,-2.79975361532846,1
"BOZO",FALSE,1,"6",692.399999976158,2.59839642787993,2.43521231481135,0.163184113068574,1065.60000002384,TRUE,1,2,"High",1.97762218199533,2.59839642787993,3.37088509691314,3.05105753622189,3.74855852728259,4.35592935271267,5.56830067035287,4.70027811403289,2.17394290889908,4.77737579732379,0.620774245884599,0,-0.772488669033219,-0.452661108341965,-1.15016209940267,-1.75753292483275,-2.96990424247294,-2.10188168615296,0.424453518980842,-2.17897936944386,1
"ROVE",FALSE,2,"6",692.599999904633,3.37088509691314,2.61500147611947,0.755883620793678,1912,TRUE,1,2,"High",1.97762218199533,2.59839642787993,3.37088509691314,3.05105753622189,3.74855852728259,4.35592935271267,5.56830067035287,4.70027811403289,2.17394290889908,4.77737579732379,1.39326291491782,0.772488669033219,0,0.319827560691254,-0.377673430369449,-0.985044255799527,-2.19741557343972,-1.32939301711974,1.19694218801406,-1.40649070041064,1
"ROAR",FALSE,3,"6",602.300000071526,3.05105753622189,2.57137919825948,0.479678337962411,1114.29999995232,TRUE,1,2,"High",1.97762218199533,2.59839642787993,3.37088509691314,3.05105753622189,3.74855852728259,4.35592935271267,5.56830067035287,4.70027811403289,2.17394290889908,4.77737579732379,1.07343535422656,0.452661108341965,-0.319827560691254,0,-0.697500991060703,-1.30487181649078,-2.51724313413098,-1.649220577811,0.877114627322806,-1.7263182611019,1
"POUT",FALSE,4,"6",670.099999904633,3.74855852728259,5.56460664983181,-1.81604812254922,1543.70000004768,TRUE,1,2,"High",1.97762218199533,2.59839642787993,3.37088509691314,3.05105753622189,3.74855852728259,4.35592935271267,5.56830067035287,4.70027811403289,2.17394290889908,4.77737579732379,1.77093634528727,1.15016209940267,0.377673430369449,0.697500991060703,0,-0.607370825430078,-1.81974214307027,-0.951719586750293,1.57461561838351,-1.02881727004119,1
"NOOK",FALSE,5,"5",1143.39999997616,4.35592935271267,4.04537740288948,0.310551949823193,1865,TRUE,1,2,"Low",1.97762218199533,2.59839642787993,3.37088509691314,3.05105753622189,3.74855852728259,4.35592935271267,5.56830067035287,4.70027811403289,2.17394290889908,4.77737579732379,2.37830717071735,1.75753292483275,0.985044255799527,1.30487181649078,0.607370825430078,0,-1.2123713176402,-0.344348761320215,2.18198644381359,-0.421446444611116,1
"TOTE",FALSE,6,"6",1189.70000004768,5.56830067035287,2.02601720508883,-2.74090184191555,1581.89999997616,TRUE,1,2,"High",1.97762218199533,2.59839642787993,3.37088509691314,3.05105753622189,3.74855852728259,4.35592935271267,5.56830067035287,4.70027811403289,2.17394290889908,4.77737579732379,-2.69250681882204,2.96990424247294,2.19741557343972,2.51724313413098,1.81974214307027,1.2123713176402,0,0.868022556319982,-2.8888275457258,0.790924873029081,1
"MUCK",FALSE,7,"6",850.300000071526,4.70027811403289,4.6811212500606,0.0191568639722872,904.300000071526,TRUE,1,2,"High",1.97762218199533,2.59839642787993,3.37088509691314,3.05105753622189,3.74855852728259,4.35592935271267,5.56830067035287,4.70027811403289,2.17394290889908,4.77737579732379,2.72265593203756,2.10188168615296,1.32939301711974,1.649220577811,0.951719586750293,0.344348761320215,-0.868022556319982,0,2.5263352051338,-0.0770976832909014,1
"DOTS",FALSE,8,"6",1220.89999997616,2.17394290889908,4.67219616378726,-2.49825325488817,1680.70000004768,TRUE,1,2,"High",1.97762218199533,2.59839642787993,3.37088509691314,3.05105753622189,3.74855852728259,4.35592935271267,5.56830067035287,4.70027811403289,2.17394290889908,4.77737579732379,0.196320726903758,-0.424453518980842,-1.19694218801406,-0.877114627322806,-1.57461561838351,-2.18198644381359,2.8888275457258,-2.5263352051338,0,-2.6034328884247,1
"OWLS",FALSE,9,"6",985.099999904633,4.77737579732379,4.70345266850962,0.0739231288141706,1476.10000002384,TRUE,1,2,"High",1.97762218199533,2.59839642787993,3.37088509691314,3.05105753622189,3.74855852728259,4.35592935271267,5.56830067035287,4.70027811403289,2.17394290889908,4.77737579732379,2.79975361532846,2.17897936944386,1.40649070041064,1.7263182611019,1.02881727004119,0.421446444611116,-0.790924873029081,0.0770976832909014,2.6034328884247,0,1
"REEL",FALSE,0,"6",645.799999952316,1.783662992801,2.20661769227716,-0.422954699476166,815.200000047684,TRUE,2,2,"High",1.783662992801,6.17630657699871,1.86359638694602,1.12641423852579,1.92676163072753,0.662814875156376,4.82082417228413,6.1303880508151,5.47326059270651,0.973237410573511,0,1.89054172298187,-0.079933394145026,0.657248754275209,-0.143098637926528,1.12084811764462,-3.03716117948313,1.93646024916548,2.59358770727407,0.810425582227487,1
"LAPS",FALSE,1,"6",827,6.17630657699871,0.61366987922006,-0.720548609400936,1090.70000004768,TRUE,2,2,"High",1.783662992801,6.17630657699871,1.86359638694602,1.12641423852579,1.92676163072753,0.662814875156376,4.82082417228413,6.1303880508151,5.47326059270651,0.973237410573511,-1.89054172298187,0,-1.9704751171269,-1.23329296870666,-2.0336403609084,-0.769693605337253,1.35548240471458,0.0459185261836073,0.703045984292199,-1.08011614075439,1
"FLEA",FALSE,2,"6",1276.89999997616,1.86359638694602,2.13463223728828,-0.27103585034226,3414.10000002384,TRUE,2,2,"High",1.783662992801,6.17630657699871,1.86359638694602,1.12641423852579,1.92676163072753,0.662814875156376,4.82082417228413,6.1303880508151,5.47326059270651,0.973237410573511,0.079933394145026,1.9704751171269,0,0.737182148420235,-0.0631652437815022,1.20078151178965,-2.95722778533811,2.01639364331051,2.6735211014191,0.890358976372513,1
"DUDS",FALSE,3,"6",739,1.12641423852579,1.07941152414452,0.0470027143812635,2522.60000002384,TRUE,2,2,"High",1.783662992801,6.17630657699871,1.86359638694602,1.12641423852579,1.92676163072753,0.662814875156376,4.82082417228413,6.1303880508151,5.47326059270651,0.973237410573511,-0.657248754275209,1.23329296870666,-0.737182148420235,0,-0.800347392201737,0.463599363369412,2.58877537342125,1.27921149489027,1.93633895299886,0.153176827952277,1
"SANE",FALSE,4,"6",580.799999952316,1.92676163072753,2.26724581039088,-0.340484179663352,613.399999976158,TRUE,2,2,"High",1.783662992801,6.17630657699871,1.86359638694602,1.12641423852579,1.92676163072753,0.662814875156376,4.82082417228413,6.1303880508151,5.47326059270651,0.973237410573511,0.143098637926528,2.0336403609084,0.0631652437815022,0.800347392201737,0,1.26394675557115,-2.8940625415566,2.07955888709201,2.7366863452006,0.953524220154015,1
"HARP",FALSE,5,"6",1073.39999997616,0.662814875156376,0.820916159104176,-0.1581012839478,1690,TRUE,2,2,"High",1.783662992801,6.17630657699871,1.86359638694602,1.12641423852579,1.92676163072753,0.662814875156376,4.82082417228413,6.1303880508151,5.47326059270651,0.973237410573511,-1.12084811764462,0.769693605337253,-1.20078151178965,-0.463599363369412,-1.26394675557115,0,2.12517601005183,0.81561213152086,1.47273958962945,-0.310422535417135,1
"FADE",FALSE,6,"6",2505.79999995232,4.82082417228413,2.29573867140721,2.52508550087691,2164.5,TRUE,2,2,"High",1.783662992801,6.17630657699871,1.86359638694602,1.12641423852579,1.92676163072753,0.662814875156376,4.82082417228413,6.1303880508151,5.47326059270651,0.973237410573511,3.03716117948313,-1.35548240471458,2.95722778533811,-2.58877537342125,2.8940625415566,-2.12517601005183,0,-1.30956387853097,-0.652436420422381,-2.43559854546897,1
"GALE",FALSE,7,"6",736.100000023842,6.1303880508151,5.88680186636773,0.243586184447374,2674.39999997616,TRUE,2,2,"High",1.783662992801,6.17630657699871,1.86359638694602,1.12641423852579,1.92676163072753,0.662814875156376,4.82082417228413,6.1303880508151,5.47326059270651,0.973237410573511,-1.93646024916548,-0.0459185261836073,-2.01639364331051,-1.27921149489027,-2.07955888709201,-0.81561213152086,1.30956387853097,0,0.657127458108592,-1.12603466693799,1
"LEAP",FALSE,8,"6",736.799999952316,5.47326059270651,5.4767245281609,-0.00346393545439039,848.099999904633,TRUE,2,2,"High",1.783662992801,6.17630657699871,1.86359638694602,1.12641423852579,1.92676163072753,0.662814875156376,4.82082417228413,6.1303880508151,5.47326059270651,0.973237410573511,-2.59358770727407,-0.703045984292199,-2.6735211014191,-1.93633895299886,-2.7366863452006,-1.47273958962945,0.652436420422381,-0.657127458108592,0,-1.78316212504659,1
"MUTE",FALSE,9,"6",668.5,0.973237410573511,3.9108832219842,-2.93764581141069,2663.30000007153,TRUE,2,2,"High",1.783662992801,6.17630657699871,1.86359638694602,1.12641423852579,1.92676163072753,0.662814875156376,4.82082417228413,6.1303880508151,5.47326059270651,0.973237410573511,-0.810425582227487,1.08011614075439,-0.890358976372513,-0.153176827952277,-0.953524220154015,0.310422535417135,2.43559854546897,1.12603466693799,1.78316212504659,0,1
"ITCH",FALSE,0,"6",627.600000023842,0.00302974056605238,6.26644670186509,0.0197683458805502,1275.29999995232,TRUE,3,2,"High",0.00302974056605238,0.292941025298579,3.15644301417858,4.69479404402955,1.52935563080941,1.28987314391555,4.85912668346319,1.89421066132254,0.54918356278153,1.30174106311674,0,-0.289911284732526,3.12977203356706,1.59142100371609,-1.52632589024335,-1.2868434033495,1.42708836428245,-1.89118092075649,-0.546153822215477,-1.29871132255069,1
"FRET",FALSE,1,"5",1503.29999995232,0.292941025298579,5.49212320747473,1.08400312500344,813.199999928474,TRUE,3,2,"Low",0.00302974056605238,0.292941025298579,3.15644301417858,4.69479404402955,1.52935563080941,1.28987314391555,4.85912668346319,1.89421066132254,0.54918356278153,1.30174106311674,0.289911284732526,0,-2.86350198888,1.88133228844861,-1.23641460551083,-0.99693211861697,1.71699964901497,-1.60126963602396,-0.256242537482951,-1.00880003781816,1
"RIPE",FALSE,2,"6",861.599999904633,3.15644301417858,1.58871555702427,1.56772745715431,1456.70000004768,TRUE,3,2,"High",0.00302974056605238,0.292941025298579,3.15644301417858,4.69479404402955,1.52935563080941,1.28987314391555,4.85912668346319,1.89421066132254,0.54918356278153,1.30174106311674,-3.12977203356706,2.86350198888,0,-1.53835102985097,1.62708738336918,1.86656987026303,-1.70268366928461,1.26223235285604,2.60725945139705,1.85470195106184,1
"ATOM",FALSE,3,"6",511.900000095367,4.69479404402955,4.71238898038469,-0.0175949363551382,1172.89999997616,TRUE,3,2,"High",0.00302974056605238,0.292941025298579,3.15644301417858,4.69479404402955,1.52935563080941,1.28987314391555,4.85912668346319,1.89421066132254,0.54918356278153,1.30174106311674,-1.59142100371609,-1.88133228844861,1.53835102985097,0,-3.11774689395944,-2.87826440706558,-0.164332639433641,2.80058338270701,-2.13757482593156,-2.89013232626677,1
"SEWN",FALSE,4,"6",558,1.52935563080941,1.58871555702427,-0.0593599262148661,1422.19999992847,TRUE,3,2,"High",0.00302974056605238,0.292941025298579,3.15644301417858,4.69479404402955,1.52935563080941,1.28987314391555,4.85912668346319,1.89421066132254,0.54918356278153,1.30174106311674,1.52632589024335,1.23641460551083,-1.62708738336918,3.11774689395944,0,0.239482486893857,2.9534142545258,-0.364855030513134,0.980172068027875,0.227614567692667,1
"INFO",FALSE,5,"6",850,1.28987314391555,1.22233237326262,0.0675407706529248,1198,TRUE,3,2,"High",0.00302974056605238,0.292941025298579,3.15644301417858,4.69479404402955,1.52935563080941,1.28987314391555,4.85912668346319,1.89421066132254,0.54918356278153,1.30174106311674,1.2868434033495,0.99693211861697,-1.86656987026303,2.87826440706558,-0.239482486893857,0,2.71393176763194,-0.604337517406991,0.740689581134019,-0.0118679192011897,1
"FLUX",FALSE,6,"6",716.200000047684,4.85912668346319,4.91869258483883,-0.0595659013756356,844.400000095367,TRUE,3,2,"High",0.00302974056605238,0.292941025298579,3.15644301417858,4.69479404402955,1.52935563080941,1.28987314391555,4.85912668346319,1.89421066132254,0.54918356278153,1.30174106311674,-1.42708836428245,-1.71699964901497,1.70268366928461,0.164332639433641,-2.9534142545258,-2.71393176763194,0,2.96491602214065,-1.97324218649792,-2.72579968683313,1
"MEAD",FALSE,7,"6",1548.20000004768,1.89421066132254,2.0200276694305,-0.125817008107957,1014.40000009537,TRUE,3,2,"High",0.00302974056605238,0.292941025298579,3.15644301417858,4.69479404402955,1.52935563080941,1.28987314391555,4.85912668346319,1.89421066132254,0.54918356278153,1.30174106311674,1.89118092075649,1.60126963602396,-1.26223235285604,-2.80058338270701,0.364855030513134,0.604337517406991,-2.96491602214065,0,1.34502709854101,0.592469598205801,1
"BRAS",FALSE,8,"6",646.199999928474,0.54918356278153,0.598653607080203,-0.0494700442986731,981,TRUE,3,2,"High",0.00302974056605238,0.292941025298579,3.15644301417858,4.69479404402955,1.52935563080941,1.28987314391555,4.85912668346319,1.89421066132254,0.54918356278153,1.30174106311674,0.546153822215477,0.256242537482951,-2.60725945139705,2.13757482593156,-0.980172068027875,-0.740689581134019,1.97324218649792,-1.34502709854101,0,-0.752557500335209,1
"VIBE",FALSE,9,"6",647.299999952316,1.30174106311674,1.21391281372249,0.0878282493942448,1366.89999997616,TRUE,3,2,"High",0.00302974056605238,0.292941025298579,3.15644301417858,4.69479404402955,1.52935563080941,1.28987314391555,4.85912668346319,1.89421066132254,0.54918356278153,1.30174106311674,1.29871132255069,1.00880003781816,-1.85470195106184,2.89013232626677,-0.227614567692667,0.0118679192011897,2.72579968683313,-0.592469598205801,0.752557500335209,0,1
"REAP",FALSE,0,"6",624.599999904633,0.853892507615134,0.935921842337254,-0.0820293347221198,2925.89999997616,TRUE,4,2,"High",0.853892507615134,1.16884708639874,5.89825424154041,4.06511685737529,5.44604340387414,1.40864845634808,3.6068722929779,4.54929047553666,4.80590406524802,1.16911981194818,0,-0.314954578783606,1.23882357325431,3.07196095741943,1.69103441092058,-0.554755948732944,-2.75297978536276,2.58778733925806,2.3311737495467,-0.315227304333044,1
"BULK",FALSE,1,"6",714.899999976158,1.16884708639874,1.03701761359507,0.131829472803673,980.600000023842,TRUE,4,2,"High",0.853892507615134,1.16884708639874,5.89825424154041,4.06511685737529,5.44604340387414,1.40864845634808,3.6068722929779,4.54929047553666,4.80590406524802,1.16911981194818,0.314954578783606,0,1.55377815203792,-2.89626977097655,2.00598898970419,-0.239801369949339,-2.43802520657916,2.90274191804167,2.64612832833031,-0.000272725549438579,1
"RUST",FALSE,2,"6",782.100000023842,5.89825424154041,5.69099856021984,0.207255681320571,2580.39999997616,TRUE,4,2,"High",0.853892507615134,1.16884708639874,5.89825424154041,4.06511685737529,5.44604340387414,1.40864845634808,3.6068722929779,4.54929047553666,4.80590406524802,1.16911981194818,-1.23882357325431,-1.55377815203792,0,1.83313738416511,0.452210837666269,-1.79357952198726,2.29138194856251,1.34896376600375,1.09235017629239,-1.55405087758736,1
"MOLD",FALSE,3,"6",625.100000023842,4.06511685737529,4.00799635433782,0.0571205030374706,2045.29999995232,TRUE,4,2,"High",0.853892507615134,1.16884708639874,5.89825424154041,4.06511685737529,5.44604340387414,1.40864845634808,3.6068722929779,4.54929047553666,4.80590406524802,1.16911981194818,-3.07196095741943,2.89626977097655,-1.83313738416511,0,-1.38092654649885,2.65646840102722,0.458244564397396,-0.484173618161365,-0.740787207872723,2.89599704542712,1
"COPE",FALSE,4,"6",872,5.44604340387414,5.48575473497588,-0.0397113311017439,1199.39999997616,TRUE,4,2,"High",0.853892507615134,1.16884708639874,5.89825424154041,4.06511685737529,5.44604340387414,1.40864845634808,3.6068722929779,4.54929047553666,4.80590406524802,1.16911981194818,-1.69103441092058,-2.00598898970419,-0.452210837666269,1.38092654649885,0,-2.24579035965352,1.83917111089624,0.896752928337481,0.640139338626123,-2.00626171525362,1
"PEAR",FALSE,5,"6",670.299999952316,1.40864845634808,1.33580862403651,0.0728398323115633,878.5,TRUE,4,2,"High",0.853892507615134,1.16884708639874,5.89825424154041,4.06511685737529,5.44604340387414,1.40864845634808,3.6068722929779,4.54929047553666,4.80590406524802,1.16911981194818,0.554755948732944,0.239801369949339,1.79357952198726,-2.65646840102722,2.24579035965352,0,-2.19822383662982,-3.14064201918858,2.88592969827965,0.2395286443999,1
"LUST",FALSE,6,"6",1750.89999997616,3.6068722929779,3.81285952127343,-0.205987228295533,1230.19999992847,TRUE,4,2,"High",0.853892507615134,1.16884708639874,5.89825424154041,4.06511685737529,5.44604340387414,1.40864845634808,3.6068722929779,4.54929047553666,4.80590406524802,1.16911981194818,2.75297978536276,2.43802520657916,-2.29138194856251,-0.458244564397396,-1.83917111089624,2.19822383662982,0,-0.942418182558761,-1.19903177227012,2.43775248102972,1
"PINE",FALSE,7,"6",737.100000023842,4.54929047553666,4.47698358615967,0.0723068893769874,1951.10000002384,TRUE,4,2,"High",0.853892507615134,1.16884708639874,5.89825424154041,4.06511685737529,5.44604340387414,1.40864845634808,3.6068722929779,4.54929047553666,4.80590406524802,1.16911981194818,-2.58778733925806,-2.90274191804167,-1.34896376600375,0.484173618161365,-0.896752928337481,3.14064201918858,0.942418182558761,0,-0.256613589711358,-2.90301464359111,1
"HEEL",FALSE,8,"6",973.200000047684,4.80590406524802,4.92304727080966,-0.117143205561646,1456.89999997616,TRUE,4,2,"High",0.853892507615134,1.16884708639874,5.89825424154041,4.06511685737529,5.44604340387414,1.40864845634808,3.6068722929779,4.54929047553666,4.80590406524802,1.16911981194818,-2.3311737495467,-2.64612832833031,-1.09235017629239,0.740787207872723,-0.640139338626123,-2.88592969827965,1.19903177227012,0.256613589711358,0,-2.64640105387975,1
"TOFU",FALSE,9,"6",612.800000071526,1.16911981194818,0.958377895852539,0.210741916095639,1547.60000002384,TRUE,4,2,"High",0.853892507615134,1.16884708639874,5.89825424154041,4.06511685737529,5.44604340387414,1.40864845634808,3.6068722929779,4.54929047553666,4.80590406524802,1.16911981194818,0.315227304333044,0.000272725549438579,1.55405087758736,-2.89599704542712,2.00626171525362,-0.2395286443999,-2.43775248102972,2.90301464359111,2.64640105387975,0,1
"SEED",FALSE,0,"6",738.399999976158,0.675279591215691,0.795550041391985,-0.120270450176295,746.100000023842,TRUE,5,2,"High",0.675279591215691,0.713794787184197,6.02223851130344,0.199296069501983,0.54654575851397,0.111837614332464,4.22382714395155,3.88872609650417,1.43272909175242,1.16432553141489,0,-0.0385151959685059,0.936226387091839,0.475983521713708,0.128733832701721,0.563441976883227,2.73463775444372,3.06973880189111,-0.757449500536734,-0.489045940199196,1
"TWIG",FALSE,1,"6",715.899999976158,0.713794787184197,0.6971492303987,0.016645556785497,979.799999952316,TRUE,5,2,"High",0.675279591215691,0.713794787184197,6.02223851130344,0.199296069501983,0.54654575851397,0.111837614332464,4.22382714395155,3.88872609650417,1.43272909175242,1.16432553141489,0.0385151959685059,0,0.974741583060345,0.514498717682214,0.167249028670227,0.601957172851733,2.77315295041223,3.10825399785961,-0.718934304568228,-0.45053074423069,1
"HYMN",FALSE,2,"6",505.899999976158,6.02223851130344,5.8785289611947,0.14370955010874,1131.5,TRUE,5,2,"High",0.675279591215691,0.713794787184197,6.02223851130344,0.199296069501983,0.54654575851397,0.111837614332464,4.22382714395155,3.88872609650417,1.43272909175242,1.16432553141489,-0.936226387091839,-0.974741583060345,0,-0.460242865378132,-0.807492554390119,-0.372784410208612,1.79841136735188,2.13351241479927,-1.69367588762857,-1.42527232729104,1
"HAZY",FALSE,3,"6",747.800000071526,0.199296069501983,0.0459135734399392,0.153382496062044,1114.60000002384,TRUE,5,2,"High",0.675279591215691,0.713794787184197,6.02223851130344,0.199296069501983,0.54654575851397,0.111837614332464,4.22382714395155,3.88872609650417,1.43272909175242,1.16432553141489,-0.475983521713708,-0.514498717682214,0.460242865378132,0,-0.347249689011987,0.0874584551695192,2.25865423273002,2.5937552801774,-1.23343302225044,-0.965029461912904,1
"RITE",FALSE,4,"6",2027.5,0.54654575851397,0.763690147649523,-0.217144389135554,3113.79999995232,TRUE,5,2,"High",0.675279591215691,0.713794787184197,6.02223851130344,0.199296069501983,0.54654575851397,0.111837614332464,4.22382714395155,3.88872609650417,1.43272909175242,1.16432553141489,-0.128733832701721,-0.167249028670227,0.807492554390119,0.347249689011987,0,0.434708144181506,2.605903921742,2.94100496918939,-0.886183333238455,-0.617779772900917,1
"MAZE",FALSE,5,"2",2324.39999997616,0.111837614332464,5.66160036844595,0.733422553066104,2697,TRUE,5,2,"Unrecognized",0.675279591215691,0.713794787184197,6.02223851130344,0.199296069501983,0.54654575851397,0.111837614332464,4.22382714395155,3.88872609650417,1.43272909175242,1.16432553141489,-0.563441976883227,-0.601957172851733,0.372784410208612,-0.0874584551695192,-0.434708144181506,0,2.1711957775605,2.50629682500788,-1.32089147741996,-1.05248791708242,1
"HENS",FALSE,6,"6",850.799999952316,4.22382714395155,2.37749458509687,1.84633255885468,1100.30000007153,TRUE,5,2,"High",0.675279591215691,0.713794787184197,6.02223851130344,0.199296069501983,0.54654575851397,0.111837614332464,4.22382714395155,3.88872609650417,1.43272909175242,1.16432553141489,-2.73463775444372,-2.77315295041223,-1.79841136735188,-2.25865423273002,-2.605903921742,-2.1711957775605,0,0.335101047447383,2.79109805219913,3.05950161253667,1
"MESA",FALSE,7,"6",714.300000071526,3.88872609650417,3.77908895427834,0.109637142225834,431.200000047684,TRUE,5,2,"High",0.675279591215691,0.713794787184197,6.02223851130344,0.199296069501983,0.54654575851397,0.111837614332464,4.22382714395155,3.88872609650417,1.43272909175242,1.16432553141489,-3.06973880189111,-3.10825399785961,-2.13351241479927,-2.5937552801774,-2.94100496918939,-2.50629682500788,-0.335101047447383,0,2.45599700475175,2.72440056508928,1
"TWOS",FALSE,8,"6",602.299999952316,1.43272909175242,1.48511151586683,-0.0523824241144088,1180.29999995232,TRUE,5,2,"High",0.675279591215691,0.713794787184197,6.02223851130344,0.199296069501983,0.54654575851397,0.111837614332464,4.22382714395155,3.88872609650417,1.43272909175242,1.16432553141489,0.757449500536734,0.718934304568228,1.69367588762857,1.23343302225044,0.886183333238455,1.32089147741996,-2.79109805219913,-2.45599700475175,0,0.268403560337537,1
"BASS",FALSE,9,"6",603.100000023842,1.16432553141489,1.19560107307527,-0.031275541660384,1112.29999995232,TRUE,5,2,"High",0.675279591215691,0.713794787184197,6.02223851130344,0.199296069501983,0.54654575851397,0.111837614332464,4.22382714395155,3.88872609650417,1.43272909175242,1.16432553141489,0.489045940199196,0.45053074423069,1.42527232729104,0.965029461912904,0.617779772900917,1.05248791708242,-3.05950161253667,-2.72440056508928,-0.268403560337537,0,1
"GALA",FALSE,0,"6",850.899999976158,3.23548650143261,3.81213846720036,-0.576651965767749,2847.70000004768,TRUE,6,2,"High",3.23548650143261,4.5852176944685,4.66259866004516,1.75877432626775,1.24021506646782,4.71751651147582,1.21680311738951,3.23953556424376,0.0434463370208917,1.68211088314945,0,-1.34973119303589,-1.42711215861255,1.47671217516486,1.99527143496479,-1.48203001004321,2.0186833840431,-0.00404906281115291,-3.09114514276787,1.55337561828316,1
"AIDE",FALSE,1,"6",669.199999928474,4.5852176944685,4.53833414284228,0.0468835516262196,1265.5,TRUE,6,2,"High",3.23548650143261,4.5852176944685,4.66259866004516,1.75877432626775,1.24021506646782,4.71751651147582,1.21680311738951,3.23953556424376,0.0434463370208917,1.68211088314945,1.34973119303589,0,-0.0773809655766664,2.82644336820075,-2.93818267917891,-0.132298817007322,-2.9147707301006,1.34568213022473,-1.74141394973198,2.90310681131905,1
"SEAS",FALSE,2,"6",2245.30000007153,4.66259866004516,3.83165066161554,0.830947998429628,1186.39999997616,TRUE,6,2,"High",3.23548650143261,4.5852176944685,4.66259866004516,1.75877432626775,1.24021506646782,4.71751651147582,1.21680311738951,3.23953556424376,0.0434463370208917,1.68211088314945,1.42711215861255,0.0773809655766664,0,2.90382433377742,-2.86080171360224,-0.0549178514306554,-2.83738976452393,1.4230630958014,-1.66403298415531,2.98048777689571,1
"TRIO",FALSE,3,"6",714.299999952316,1.75877432626775,1.86242526196089,-0.103650935693144,2465.29999995232,TRUE,6,2,"High",3.23548650143261,4.5852176944685,4.66259866004516,1.75877432626775,1.24021506646782,4.71751651147582,1.21680311738951,3.23953556424376,0.0434463370208917,1.68211088314945,-1.47671217516486,-2.82644336820075,-2.90382433377742,0,0.51855925979993,-2.95874218520807,0.541971208878237,-1.48076123797602,1.71532798924686,0.0766634431182966,1
"CLAN",FALSE,4,"6",1456.60000002384,1.24021506646782,1.05321232183234,0.187002744635475,1064.90000009537,TRUE,6,2,"High",3.23548650143261,4.5852176944685,4.66259866004516,1.75877432626775,1.24021506646782,4.71751651147582,1.21680311738951,3.23953556424376,0.0434463370208917,1.68211088314945,-1.99527143496479,2.93818267917891,2.86080171360224,-0.51855925979993,0,2.80588386217158,0.0234119490783069,-1.99932049777595,1.19676872944693,-0.441895816681633,1
"LIMB",FALSE,5,"6",591.700000047684,4.71751651147582,4.73026017709666,-0.0127436656208397,928.199999928474,TRUE,6,2,"High",3.23548650143261,4.5852176944685,4.66259866004516,1.75877432626775,1.24021506646782,4.71751651147582,1.21680311738951,3.23953556424376,0.0434463370208917,1.68211088314945,1.48203001004321,0.132298817007322,0.0549178514306554,2.95874218520807,-2.80588386217158,0,-2.78247191309328,1.47798094723206,-1.60911513272466,3.03540562832637,1
"SPAN",FALSE,6,"6",670,1.21680311738951,1.04931216651816,0.167490950871356,832.399999976158,TRUE,6,2,"High",3.23548650143261,4.5852176944685,4.66259866004516,1.75877432626775,1.24021506646782,4.71751651147582,1.21680311738951,3.23953556424376,0.0434463370208917,1.68211088314945,-2.0186833840431,2.9147707301006,2.83738976452393,-0.541971208878237,-0.0234119490783069,2.78247191309328,0,-2.02273244685425,1.17335678036862,-0.46530776575994,1
"GEEK",FALSE,7,"6",735.900000095367,3.23953556424376,3.22089039039622,0.0186451738475446,848.700000047684,TRUE,6,2,"High",3.23548650143261,4.5852176944685,4.66259866004516,1.75877432626775,1.24021506646782,4.71751651147582,1.21680311738951,3.23953556424376,0.0434463370208917,1.68211088314945,0.00404906281115291,-1.34568213022473,-1.4230630958014,1.48076123797602,1.99932049777595,-1.47798094723206,2.02273244685425,0,-3.08709607995671,1.55742468109431,1
"CAFE",FALSE,8,"6",647.100000023842,0.0434463370208917,6.26614651541971,0.0604851287807693,1232,TRUE,6,2,"High",3.23548650143261,4.5852176944685,4.66259866004516,1.75877432626775,1.24021506646782,4.71751651147582,1.21680311738951,3.23953556424376,0.0434463370208917,1.68211088314945,3.09114514276787,1.74141394973198,1.66403298415531,-1.71532798924686,-1.19676872944693,1.60911513272466,-1.17335678036862,3.08709607995671,0,-1.63866454612856,1
"LIME",FALSE,9,"6",556.799999952316,1.68211088314945,1.84390894818797,-0.161798065038518,5747.19999992847,TRUE,6,2,"High",3.23548650143261,4.5852176944685,4.66259866004516,1.75877432626775,1.24021506646782,4.71751651147582,1.21680311738951,3.23953556424376,0.0434463370208917,1.68211088314945,-1.55337561828316,-2.90310681131905,-2.98048777689571,-0.0766634431182966,0.441895816681633,-3.03540562832637,0.46530776575994,-1.55742468109431,1.63866454612856,0,1
"POND",FALSE,0,"6",646.400000095367,0.439013115630787,1.18224989063785,-0.743236775007068,860.799999952316,TRUE,7,2,"High",0.439013115630787,5.8363742451641,3.79974336722847,1.8011482925506,0.266693832156664,0.00956286101157067,4.49030536552326,1.46562168398089,4.31503348301183,3.17575836451624,0,0.885824177646278,2.92245505558191,-1.36213517691981,0.172319283474123,0.429450254619216,2.23189305728712,-1.02660856835011,2.40716493979854,-2.73674524888545,1
"CUSS",FALSE,1,"6",849.700000047684,5.8363742451641,0.782876042778289,-1.22968710479378,773.600000023842,TRUE,7,2,"High",0.439013115630787,5.8363742451641,3.79974336722847,1.8011482925506,0.266693832156664,0.00956286101157067,4.49030536552326,1.46562168398089,4.31503348301183,3.17575836451624,-0.885824177646278,0,2.03663087793563,-2.24795935456609,-0.713504894172155,-0.456373923027061,1.34606887964084,-1.91243274599638,1.52134076215227,2.66061588064786,1
"AXLE",FALSE,2,"6",669.199999928474,3.79974336722847,3.74245635166835,0.0572870155601173,783.700000047684,TRUE,7,2,"High",0.439013115630787,5.8363742451641,3.79974336722847,1.8011482925506,0.266693832156664,0.00956286101157067,4.49030536552326,1.46562168398089,4.31503348301183,3.17575836451624,-2.92245505558191,-2.03663087793563,0,1.99859507467787,-2.75013577210778,-2.49300480096269,-0.690561998294787,2.33412168324757,-0.515290115783362,0.62398500271223,1
"YANK",FALSE,3,"6",737.5,1.8011482925506,2.07399168981011,-0.272843397259517,691.800000071526,TRUE,7,2,"High",0.439013115630787,5.8363742451641,3.79974336722847,1.8011482925506,0.266693832156664,0.00956286101157067,4.49030536552326,1.46562168398089,4.31503348301183,3.17575836451624,1.36213517691981,2.24795935456609,-1.99859507467787,0,1.53445446039393,1.79158543153903,-2.68915707297266,0.335526608569702,-2.51388519046123,-1.37461007196564,1
"SEMI",FALSE,4,"6",2098.5,0.266693832156664,0.428192828682997,-0.161498996526334,522.700000047684,TRUE,7,2,"High",0.439013115630787,5.8363742451641,3.79974336722847,1.8011482925506,0.266693832156664,0.00956286101157067,4.49030536552326,1.46562168398089,4.31503348301183,3.17575836451624,-0.172319283474123,0.713504894172155,2.75013577210778,-1.53445446039393,0,0.257130971145093,2.05957377381299,-1.19892785182423,2.23484565632442,-2.90906453235957,1
"HISS",FALSE,5,"6",646.899999976158,0.00956286101157067,0.0187477214829593,-0.00918486047138859,830,TRUE,7,2,"High",0.439013115630787,5.8363742451641,3.79974336722847,1.8011482925506,0.266693832156664,0.00956286101157067,4.49030536552326,1.46562168398089,4.31503348301183,3.17575836451624,-0.429450254619216,0.456373923027061,2.49300480096269,-1.79158543153903,-0.257130971145093,0,1.8024428026679,-1.45605882296932,1.97771468517933,3.11698980367492,1
"BRIE",FALSE,6,"6",670.5,4.49030536552326,4.91432994710648,-0.424024581583224,538.600000023842,TRUE,7,2,"High",0.439013115630787,5.8363742451641,3.79974336722847,1.8011482925506,0.266693832156664,0.00956286101157067,4.49030536552326,1.46562168398089,4.31503348301183,3.17575836451624,-2.23189305728712,-1.34606887964084,0.690561998294787,2.68915707297266,-2.05957377381299,-1.8024428026679,0,3.02468368154236,0.175271882511425,1.31454700100702,1
"JAVA",FALSE,7,"6",646.899999976158,1.46562168398089,1.31187215315338,0.153749530827509,1132.70000004768,TRUE,7,2,"High",0.439013115630787,5.8363742451641,3.79974336722847,1.8011482925506,0.266693832156664,0.00956286101157067,4.49030536552326,1.46562168398089,4.31503348301183,3.17575836451624,1.02660856835011,1.91243274599638,-2.33412168324757,-0.335526608569702,1.19892785182423,1.45605882296932,-3.02468368154236,0,-2.84941179903094,-1.71013668053534,1
"BRAG",FALSE,8,"6",749.5,4.31503348301183,4.34553310022685,-0.0304996172150167,414,TRUE,7,2,"High",0.439013115630787,5.8363742451641,3.79974336722847,1.8011482925506,0.266693832156664,0.00956286101157067,4.49030536552326,1.46562168398089,4.31503348301183,3.17575836451624,-2.40716493979854,-1.52134076215227,0.515290115783362,2.51388519046123,-2.23484565632442,-1.97771468517933,-0.175271882511425,2.84941179903094,0,1.13927511849559,1
"NORM",FALSE,9,"6",636.299999952316,3.17575836451624,3.17609231495463,-0.000333950438395014,816.099999904633,TRUE,7,2,"High",0.439013115630787,5.8363742451641,3.79974336722847,1.8011482925506,0.266693832156664,0.00956286101157067,4.49030536552326,1.46562168398089,4.31503348301183,3.17575836451624,2.73674524888545,-2.66061588064786,-0.62398500271223,1.37461007196564,2.90906453235957,-3.11698980367492,-1.31454700100702,1.71013668053534,-1.13927511849559,0,1
"SUMO",FALSE,0,"6",1327.60000002384,6.13587209959114,6.01119769811227,0.124674401478874,874.200000047684,TRUE,8,2,"High",6.13587209959114,4.4338417365133,4.06329258214114,4.70585883757677,3.83664588374567,4.08250075769041,3.06964406933093,4.08959090166043,2.73996660051514,4.60254191058751,0,1.70203036307784,2.07257951745,1.43001326201438,2.29922621584548,2.05337134190073,3.06622803026021,2.04628119793071,-2.88727980810358,1.53333018900363,1
"PANT",FALSE,1,"6",961.700000047684,4.4338417365133,4.50955011943138,-0.0757083829180729,1031.20000004768,TRUE,8,2,"High",6.13587209959114,4.4338417365133,4.06329258214114,4.70585883757677,3.83664588374567,4.08250075769041,3.06964406933093,4.08959090166043,2.73996660051514,4.60254191058751,-1.70203036307784,0,0.370549154372166,-0.272017101063461,0.597195852767638,0.351340978822896,1.36419766718238,0.344250834852877,1.69387513599817,-0.168700174074206,1
"VEST",FALSE,2,"6",1817.40000009537,4.06329258214114,4.11397013302379,-0.0506775508826482,850.799999952316,TRUE,8,2,"High",6.13587209959114,4.4338417365133,4.06329258214114,4.70585883757677,3.83664588374567,4.08250075769041,3.06964406933093,4.08959090166043,2.73996660051514,4.60254191058751,-2.07257951745,-0.370549154372166,0,-0.642566255435627,0.226646698395472,-0.0192081755492701,0.993648512810209,-0.026298319519289,1.323325981626,-0.539249328446372,1
"GRAD",FALSE,3,"6",836.700000047684,4.70585883757677,4.73472663876278,-0.0288678011860179,982.799999952316,TRUE,8,2,"High",6.13587209959114,4.4338417365133,4.06329258214114,4.70585883757677,3.83664588374567,4.08250075769041,3.06964406933093,4.08959090166043,2.73996660051514,4.60254191058751,-1.43001326201438,0.272017101063461,0.642566255435627,0,0.869212953831099,0.623358079886357,1.63621476824584,0.616267935916338,1.96589223706163,0.103316926989255,1
"GEMS",FALSE,4,"6",1343.19999992847,3.83664588374567,3.86311336652763,-0.0264674827819595,782.899999976158,TRUE,8,2,"High",6.13587209959114,4.4338417365133,4.06329258214114,4.70585883757677,3.83664588374567,4.08250075769041,3.06964406933093,4.08959090166043,2.73996660051514,4.60254191058751,-2.29922621584548,-0.597195852767638,-0.226646698395472,-0.869212953831099,0,-0.245854873944742,0.767001814414737,-0.252945017914761,1.09667928323053,-0.765896026841844,1
"SWAP",FALSE,5,"6",672.699999928474,4.08250075769041,3.86311336652763,0.219387391162782,820.400000095367,TRUE,8,2,"High",6.13587209959114,4.4338417365133,4.06329258214114,4.70585883757677,3.83664588374567,4.08250075769041,3.06964406933093,4.08959090166043,2.73996660051514,4.60254191058751,-2.05337134190073,-0.351340978822896,0.0192081755492701,-0.623358079886357,0.245854873944742,0,1.01285668835948,-0.00709014397001884,1.34253415717527,-0.520041152897102,1
"DORK",FALSE,6,"6",581.899999976158,3.06964406933093,3.18531485377873,-0.115670784447801,638.300000071526,TRUE,8,2,"High",6.13587209959114,4.4338417365133,4.06329258214114,4.70585883757677,3.83664588374567,4.08250075769041,3.06964406933093,4.08959090166043,2.73996660051514,4.60254191058751,-3.06622803026021,-1.36419766718238,-0.993648512810209,-1.63621476824584,-0.767001814414737,-1.01285668835948,0,-1.0199468323295,0.329677468815794,-1.53289784125658,1
"CURB",FALSE,7,"6",625.600000023842,4.08959090166043,3.97066163250047,0.118929269159962,1196.20000004768,TRUE,8,2,"High",6.13587209959114,4.4338417365133,4.06329258214114,4.70585883757677,3.83664588374567,4.08250075769041,3.06964406933093,4.08959090166043,2.73996660051514,4.60254191058751,-2.04628119793071,-0.344250834852877,0.026298319519289,-0.616267935916338,0.252945017914761,0.00709014397001884,1.0199468323295,0,1.34962430114529,-0.512951008927083,1
"COZY",FALSE,8,"6",647.199999928474,2.73996660051514,2.64324237365713,0.0967242268580097,864.299999952316,TRUE,8,2,"High",6.13587209959114,4.4338417365133,4.06329258214114,4.70585883757677,3.83664588374567,4.08250075769041,3.06964406933093,4.08959090166043,2.73996660051514,4.60254191058751,2.88727980810358,-1.69387513599817,-1.323325981626,-1.96589223706163,-1.09667928323053,-1.34253415717527,-0.329677468815794,-1.34962430114529,0,-1.86257531007238,1
"TIDE",FALSE,9,"6",6712.5,4.60254191058751,0.478559771692197,-2.15920316828427,4380.60000002384,TRUE,8,2,"High",6.13587209959114,4.4338417365133,4.06329258214114,4.70585883757677,3.83664588374567,4.08250075769041,3.06964406933093,4.08959090166043,2.73996660051514,4.60254191058751,-1.53333018900363,0.168700174074206,0.539249328446372,-0.103316926989255,0.765896026841844,0.520041152897102,1.53289784125658,0.512951008927083,1.86257531007238,0,1
"PERK",FALSE,0,"6",646.5,4.50814512260683,4.42281254889891,0.0853325737079249,832,TRUE,9,2,"High",4.50814512260683,3.16052814128239,2.49769172651934,4.50408991072027,3.57898035865716,3.23330691424315,1.32810014980053,3.7098502449818,3.18734926955512,0.630228711257433,0,1.34761698132445,2.01045339608749,0.00405521188656355,0.929164763949673,1.27483820836368,-3.10314033437328,0.798294877625033,1.32079585305171,-2.40526889583019,1
"KNOT",FALSE,1,"6",600.200000047684,3.16052814128239,3.14959256430468,0.0109355769777073,1801,TRUE,9,2,"High",4.50814512260683,3.16052814128239,2.49769172651934,4.50408991072027,3.57898035865716,3.23330691424315,1.32810014980053,3.7098502449818,3.18734926955512,0.630228711257433,-1.34761698132445,0,0.662836414763045,-1.34356176943788,-0.418452217374773,-0.0727787729607612,1.83242799148186,-0.549322103699412,-0.0268211282727369,2.53029943002495,1
"FATS",FALSE,2,"6",580.600000023842,2.49769172651934,2.43812404725968,0.0595676792596627,918.5,TRUE,9,2,"High",4.50814512260683,3.16052814128239,2.49769172651934,4.50408991072027,3.57898035865716,3.23330691424315,1.32810014980053,3.7098502449818,3.18734926955512,0.630228711257433,-2.01045339608749,-0.662836414763045,0,-2.00639818420093,-1.08128863213782,-0.735615187723806,1.16959157671882,-1.21215851846246,-0.689657543035782,1.86746301526191,1
